Acc_x,Acc_y,Acc_z,Gyro_x,Gyro_y,Gyro_z,Labels
458,-890,-80,46,-44,-28,0
458,-888,-81,46,-44,-27,0
457,-888,-79,45,-44,-27,0
457,-888,-80,46,-45,-26,0
456,-887,-81,47,-45,-26,0
457,-885,-82,48,-46,-25,0
456,-885,-84,50,-47,-26,0
459,-885,-84,51,-49,-26,0
459,-886,-85,53,-51,-27,0
459,-885,-85,53,-53,-27,0
458,-885,-85,53,-53,-26,0
460,-885,-86,52,-52,-26,0
460,-885,-86,52,-50,-25,0
459,-882,-84,50,-50,-25,0
460,-883,-85,49,-48,-26,0
461,-883,-84,49,-47,-27,0
462,-886,-84,47,-46,-27,0
460,-888,-81,45,-45,-27,0
458,-890,-80,42,-45,-27,0
457,-890,-77,40,-44,-27,0
456,-890,-74,38,-42,-26,0
455,-892,-74,37,-42,-26,0
455,-894,-74,38,-42,-25,0
454,-893,-73,38,-43,-25,0
454,-892,-73,40,-44,-25,0
454,-893,-72,42,-45,-24,0
455,-893,-72,44,-45,-24,0
456,-892,-72,46,-45,-24,0
457,-891,-71,48,-46,-25,0
457,-888,-71,50,-46,-25,0
454,-888,-72,51,-47,-26,0
452,-888,-71,53,-48,-27,0
452,-888,-71,54,-49,-27,0
450,-889,-72,54,-49,-27,0
450,-888,-73,54,-51,-25,0
451,-887,-72,55,-54,-25,0
456,-889,-74,56,-58,-24,0
458,-889,-74,56,-61,-22,0
459,-888,-72,55,-63,-21,0
457,-887,-72,54,-65,-20,0
455,-887,-76,56,-67,-21,0
456,-889,-80,58,-66,-23,0
455,-889,-80,58,-63,-25,0
455,-887,-80,57,-61,-26,0
458,-887,-80,55,-60,-26,0
463,-887,-79,53,-58,-25,0
466,-889,-77,52,-55,-25,0
464,-889,-78,51,-51,-25,0
461,-887,-78,50,-48,-26,0
457,-886,-76,50,-45,-27,0
455,-887,-76,49,-44,-28,0
455,-887,-76,48,-43,-27,0
455,-887,-76,47,-43,-26,0
458,-889,-76,47,-43,-26,0
458,-891,-77,47,-44,-26,0
457,-892,-76,48,-44,-26,0
456,-892,-75,48,-43,-26,0
457,-889,-73,46,-40,-25,0
459,-888,-73,43,-37,-24,0
460,-887,-75,44,-34,-24,0
459,-887,-72,44,-34,-25,0
457,-888,-75,43,-35,-25,0
455,-888,-73,44,-34,-26,0
455,-884,-71,44,-35,-27,0
456,-877,-71,46,-36,-27,0
457,-904,-76,49,-36,-32,0
455,-894,-69,46,-31,-28,0
455,-886,-68,38,-25,-22,0
455,-884,-70,44,-28,-25,0
455,-891,-71,48,-31,-27,0
455,-892,-68,49,-33,-27,0
456,-892,-67,51,-34,-28,0
456,-892,-67,55,-33,-28,0
457,-893,-67,55,-33,-28,0
460,-893,-66,58,-32,-29,0
459,-891,-65,58,-31,-29,0
458,-891,-64,57,-30,-29,0
458,-890,-64,56,-28,-29,0
458,-892,-63,55,-26,-29,0
456,-891,-64,53,-25,-28,0
454,-888,-66,51,-25,-27,0
451,-887,-68,51,-27,-28,0
450,-886,-68,50,-31,-29,0
453,-887,-69,47,-34,-30,0
455,-889,-67,44,-36,-29,0
457,-887,-62,40,-34,-28,0
460,-884,-56,36,-30,-27,0
460,-881,-54,35,-25,-26,0
463,-869,-40,35,-19,-26,0
471,-896,-50,32,-18,-31,0
470,-906,-58,33,-12,-36,0
460,-892,-72,26,-4,-31,0
460,-892,-72,27,-3,-33,0
452,-885,-83,27,-3,-33,0
451,-883,-88,41,-10,-40,0
447,-883,-89,49,-18,-43,0
443,-879,-93,51,-27,-43,0
441,-885,-95,51,-38,-42,0
443,-891,-88,54,-51,-42,0
448,-895,-73,54,-58,-38,0
453,-894,-66,51,-64,-34,0
460,-891,-66,50,-63,-32,0
461,-887,-67,53,-61,-32,0
465,-880,-70,55,-60,-33,0
467,-878,-71,56,-61,-35,0
468,-880,-68,57,-64,-39,0
468,-881,-63,60,-66,-43,0
468,-885,-58,63,-67,-46,0
467,-887,-52,66,-66,-49,0
465,-889,-46,67,-62,-48,0
461,-891,-42,67,-56,-47,0
456,-893,-42,64,-50,-45,0
456,-893,-42,59,-45,-41,0
450,-895,-45,59,-45,-41,0
446,-894,-47,53,-42,-37,0
445,-894,-48,47,-42,-33,0
448,-893,-45,41,-44,-29,0
449,-892,-43,36,-47,-27,0
452,-894,-40,36,-49,-26,0
454,-895,-38,35,-51,-26,0
456,-897,-35,36,-53,-27,0
457,-897,-35,36,-53,-27,0
455,-895,-34,39,-54,-28,0
456,-894,-34,41,-55,-28,0
459,-894,-34,45,-54,-29,0
461,-894,-37,45,-53,-27,0
459,-894,-39,47,-51,-26,0
457,-894,-42,49,-50,-27,0
453,-892,-61,61,-90,-32,0
455,-893,-60,60,-91,-33,0
456,-893,-57,60,-92,-34,0
455,-893,-56,61,-93,-33,0
455,-892,-56,61,-93,-32,0
456,-892,-56,61,-92,-33,0
457,-893,-56,61,-90,-31,0
461,-892,-53,61,-87,-31,0
464,-890,-46,62,-86,-31,0
466,-889,-47,60,-85,-30,0
467,-887,-46,51,-88,-26,0
466,-888,-44,45,-94,-26,0
467,-891,-40,37,-98,-25,0
472,-896,-37,29,-96,-22,0
475,-899,-35,14,-90,-15,0
476,-894,-41,4,-76,-10,0
478,-884,-38,2,-63,-9,0
472,-882,-46,7,-59,-10,0
472,-882,-46,7,-58,-18,0
464,-892,-86,19,-58,-18,0
443,-895,-122,29,-57,-33,0
409,-881,-132,15,-71,-39,0
373,-861,-135,-19,-106,-27,0
374,-839,-148,-52,-148,-8,0
428,-839,-120,-57,-182,-10,0
468,-857,-82,-43,-208,-29,0
462,-876,-59,-45,-220,-42,0
438,-895,-68,-56,-190,-37,0
428,-903,-98,-97,-122,-8,0
441,-900,-137,-138,-70,24,0
473,-889,-152,-137,-61,32,0
511,-879,-128,-99,-85,11,0
537,-886,-87,-54,-108,-19,0
543,-900,-52,-18,-116,-42,0
527,-907,-40,2,-88,-54,0
495,-908,-55,10,-28,-57,0
464,-906,-69,14,31,-54,0
438,-898,-79,14,56,-45,0
438,-898,-79,6,50,-34,0
419,-890,-88,6,50,-34,0
403,-887,-100,-1,28,-26,0
407,-886,-92,-2,0,-20,0
422,-884,-82,3,-28,-21,0
433,-888,-79,9,-52,-25,0
446,-893,-81,9,-61,-24,0
461,-893,-79,9,-62,-21,0
469,-889,-83,12,-58,-22,0
468,-887,-88,13,-47,-26,0
468,-886,-88,12,-34,-30,0
467,-882,-92,12,-26,-33,0
470,-881,-88,13,-23,-37,0
470,-883,-88,13,-23,-39,0
467,-884,-89,14,-22,-40,0
465,-884,-86,18,-22,-41,0
462,-885,-88,19,-21,-40,0
457,-887,-94,17,-18,-36,0
456,-887,-96,11,-12,-30,0
454,-886,-91,8,-11,-26,0
454,-886,-91,3,-15,-25,0
452,-887,-93,3,-15,-25,0
451,-887,-98,-2,-16,-25,0
457,-885,-94,-5,-18,-26,0
458,-882,-95,-9,-17,-25,0
461,-880,-94,-13,-15,-26,0
461,-880,-94,-14,-15,-26,0
460,-881,-94,-16,-14,-27,0
457,-882,-98,-18,-11,-27,0
462,-882,-93,-17,-10,-26,0
464,-885,-92,-15,-10,-25,0
463,-884,-91,-14,-8,-25,0
462,-885,-88,-10,-5,-26,0
461,-889,-83,-5,-2,-28,0
462,-894,-83,-1,1,-30,0
464,-895,-83,-1,8,-28,0
465,-893,-78,0,13,-25,0
463,-892,-76,2,13,-25,0
457,-892,-74,8,12,-27,0
457,-893,-74,14,14,-28,0
457,-893,-74,16,16,-27,0
456,-895,-75,16,16,-27,0
453,-894,-81,16,16,-24,0
454,-890,-85,15,14,-22,0
458,-887,-84,17,6,-22,0
458,-886,-84,17,0,-23,0
458,-887,-85,18,0,-23,0
458,-885,-87,17,5,-23,0
459,-884,-93,13,11,-21,0
460,-884,-95,11,12,-21,0
460,-885,-96,14,9,-21,0
458,-888,-96,14,5,-21,0
456,-889,-98,13,5,-20,0
458,-887,-99,13,9,-19,0
461,-885,-97,14,9,-20,0
465,-883,-97,16,6,-21,0
462,-883,-99,19,5,-23,0
460,-883,-96,17,8,-22,0
457,-884,-95,15,9,-22,0
452,-884,-95,14,10,-22,0
452,-884,-95,14,9,-22,0
452,-886,-96,14,9,-22,0
452,-887,-98,14,9,-21,0
449,-885,-99,13,8,-20,0
450,-886,-98,13,5,-20,0
451,-888,-95,17,-1,-22,0
450,-888,-94,19,-6,-23,0
452,-889,-90,21,-8,-23,0
451,-889,-92,24,-7,-23,0
452,-887,-94,25,-5,-23,0
453,-886,-93,25,-7,-24,0
456,-884,-93,26,-15,-25,0
453,-884,-97,28,-21,-26,0
449,-886,-97,31,-24,-27,0
450,-887,-100,30,-22,-25,0
457,-888,-98,29,-21,-22,0
459,-888,-97,31,-25,-21,0
459,-886,-95,34,-27,-22,0
459,-887,-94,37,-28,-25,0
457,-886,-94,38,-27,-27,0
457,-886,-94,36,-26,-26,0
452,-886,-95,36,-26,-26,0
448,-885,-96,35,-28,-25,0
451,-887,-95,34,-30,-24,0
450,-888,-91,36,-36,-25,0
449,-889,-91,39,-42,-26,0
450,-890,-91,41,-43,-25,0
453,-890,-90,43,-44,-26,0
453,-888,-89,48,-46,-27,0
452,-886,-92,50,-50,-27,0
456,-886,-93,43,-40,-26,0
457,-887,-98,41,-41,-25,0
458,-885,-97,41,-43,-24,0
460,-884,-93,41,-45,-24,0
459,-883,-94,38,-44,-24,0
458,-882,-93,38,-41,-24,0
458,-884,-92,39,-37,-24,0
459,-886,-94,39,-35,-25,0
459,-886,-95,38,-34,-24,0
460,-884,-96,37,-34,-23,0
462,-883,-95,38,-34,-24,0
462,-886,-91,39,-34,-25,0
461,-886,-89,39,-31,-26,0
459,-886,-90,38,-28,-25,0
457,-886,-87,39,-26,-25,0
457,-886,-87,37,-25,-26,0
452,-886,-87,37,-25,-26,0
454,-885,-87,37,-24,-26,0
456,-887,-85,38,-27,-26,0
455,-891,-82,39,-28,-26,0
453,-893,-84,37,-27,-25,0
452,-891,-85,36,-24,-24,0
454,-888,-85,35,-22,-24,0
458,-889,-82,34,-24,-25,0
459,-890,-80,37,-29,-26,0
455,-892,-79,40,-30,-28,0
452,-891,-81,37,-25,-26,0
451,-888,-83,33,-20,-23,0
451,-886,-87,30,-21,-21,0
454,-885,-84,29,-27,-21,0
453,-885,-81,32,-33,-24,0
452,-887,-80,33,-32,-25,0
451,-889,-80,31,-27,-24,0
452,-888,-81,32,-24,-24,0
453,-890,-82,32,-25,-24,0
453,-890,-82,32,-26,-24,0
450,-889,-84,32,-26,-24,0
454,-889,-85,31,-28,-23,0
456,-889,-83,32,-29,-23,0
457,-890,-83,30,-30,-24,0
456,-888,-81,31,-30,-24,0
452,-887,-81,33,-29,-25,0
451,-889,-82,31,-27,-25,0
450,-890,-85,30,-26,-25,0
452,-891,-85,30,-27,-24,0
452,-891,-84,30,-30,-24,0
450,-889,-83,30,-30,-24,0
452,-888,-81,30,-30,-24,0
452,-887,-82,32,-33,-25,0
453,-888,-82,32,-34,-25,0
451,-889,-84,30,-33,-25,0
450,-889,-86,30,-32,-24,0
451,-889,-84,31,-32,-25,0
454,-889,-82,33,-34,-26,0
452,-890,-84,33,-36,-27,0
452,-890,-84,32,-34,-26,0
453,-888,-83,32,-34,-26,0
452,-889,-81,32,-33,-25,0
453,-890,-81,35,-36,-27,0
452,-890,-81,36,-38,-28,0
451,-891,-80,35,-36,-28,0
450,-890,-83,33,-34,-26,0
452,-888,-85,32,-33,-25,0
452,-887,-81,33,-36,-26,0
453,-888,-84,33,-38,-27,0
452,-887,-81,34,-39,-28,0
450,-887,-82,36,-41,-31,0
451,-892,-83,34,-40,-29,0
451,-889,-83,31,-38,-27,0
451,-886,-80,32,-38,-29,0
452,-888,-81,34,-41,-31,0
452,-890,-83,34,-43,-31,0
451,-890,-82,35,-43,-31,0
452,-888,-78,34,-42,-30,0
451,-889,-78,34,-42,-31,0
451,-889,-78,33,-40,-30,0
452,-891,-80,33,-40,-30,0
453,-891,-80,33,-40,-29,0
455,-890,-80,34,-42,-30,0
454,-889,-81,35,-44,-31,0
454,-890,-81,36,-45,-31,0
457,-890,-80,37,-44,-32,0
456,-889,-78,38,-44,-32,0
454,-888,-82,36,-41,-31,0
451,-888,-83,36,-40,-30,0
450,-887,-84,36,-42,-30,0
449,-887,-83,37,-45,-30,0
451,-888,-82,36,-47,-29,0
455,-888,-80,36,-48,-28,0
460,-888,-79,35,-49,-29,0
460,-887,-80,35,-49,-30,0
457,-886,-83,35,-46,-31,0
454,-886,-84,32,-42,-32,0
453,-888,-88,30,-41,-32,0
452,-889,-90,29,-43,-31,0
452,-889,-86,28,-45,-30,0
453,-891,-86,28,-45,-30,0
456,-889,-83,28,-45,-30,0
458,-890,-80,28,-44,-29,0
457,-890,-83,26,-39,-28,0
456,-888,-83,25,-35,-27,0
455,-886,-80,25,-34,-27,0
458,-886,-77,27,-37,-28,0
454,-888,-75,28,-41,-29,0
452,-888,-75,27,-38,-29,0
452,-889,-75,25,-35,-28,0
452,-890,-79,24,-36,-27,0
453,-889,-79,24,-39,-27,0
455,-890,-78,24,-42,-28,0
455,-890,-80,25,-43,-28,0
455,-891,-81,24,-41,-27,0
456,-888,-82,25,-40,-27,0
457,-885,-85,27,-42,-26,0
454,-890,-87,26,-44,-27,0
457,-887,-87,28,-45,-29,0
457,-887,-84,28,-47,-26,0
460,-881,-84,28,-47,-26,0
455,-887,-86,28,-47,-28,0
451,-891,-83,30,-46,-31,0
452,-890,-84,29,-44,-29,0
457,-885,-89,28,-43,-27,0
458,-885,-91,26,-40,-25,0
451,-891,-94,27,-42,-30,0
452,-890,-94,30,-46,-29,0
454,-887,-93,28,-47,-27,0
458,-884,-93,29,-49,-28,0
457,-887,-93,31,-49,-29,0
455,-886,-93,32,-50,-30,0
458,-888,-89,29,-31,-28,0
458,-888,-89,30,-32,-27,0
453,-889,-94,30,-32,-27,0
453,-885,-88,31,-32,-28,0
461,-888,-85,26,-32,-30,0
467,-884,-86,28,-32,-30,0
463,-887,-87,33,-31,-30,0
455,-886,-85,35,-30,-31,0
451,-891,-85,29,-29,-31,0
451,-893,-85,27,-29,-27,0
450,-887,-81,24,-30,-25,0
456,-885,-80,23,-31,-25,0
462,-887,-79,24,-30,-24,0
463,-889,-79,25,-31,-24,0
463,-894,-80,24,-32,-24,0
461,-894,-83,28,-32,-24,0
460,-891,-83,33,-30,-23,0
462,-892,-85,36,-32,-19,0
464,-903,-85,39,-35,-16,0
458,-906,-87,40,-37,-11,0
456,-897,-87,40,-32,-6,0
456,-897,-87,41,-23,-3,0
459,-885,-95,41,-23,-3,0
467,-875,-102,45,-16,-4,0
472,-871,-100,47,-14,-7,0
467,-878,-96,50,-17,-14,0
452,-884,-95,51,-20,-20,0
437,-886,-92,52,-22,-22,0
429,-886,-95,50,-23,-22,0
431,-886,-99,48,-26,-19,0
435,-886,-102,46,-33,-16,0
439,-888,-104,45,-46,-18,0
448,-889,-103,49,-57,-20,0
456,-887,-102,50,-59,-21,0
463,-887,-99,51,-54,-22,0
464,-886,-101,50,-48,-24,0
461,-884,-98,51,-43,-27,0
454,-887,-94,56,-42,-31,0
451,-887,-91,55,-41,-32,0
456,-880,-91,50,-36,-26,0
456,-880,-88,48,-33,-24,0
456,-880,-88,51,-35,-27,0
450,-890,-83,51,-35,-27,0
447,-897,-75,48,-33,-27,0
452,-894,-68,42,-29,-25,0
454,-895,-74,43,-24,-22,0
463,-872,-71,54,-25,-22,0
457,-883,-66,54,-28,-28,0
452,-896,-65,51,-28,-35,0
457,-900,-63,49,-24,-29,0
459,-907,-64,50,-23,-26,0
448,-909,-66,51,-24,-23,0
443,-903,-67,49,-26,-16,0
442,-894,-70,51,-29,-10,0
444,-887,-75,60,-32,-8,0
449,-888,-78,71,-36,-9,0
454,-891,-85,77,-41,-11,0
459,-895,-86,79,-48,-12,0
464,-894,-90,78,-53,-12,0
467,-889,-94,77,-54,-13,0
464,-875,-95,76,-51,-13,0
464,-875,-95,72,-46,-14,0
457,-864,-93,72,-46,-14,0
455,-862,-95,71,-44,-18,0
457,-866,-96,68,-45,-22,0
456,-870,-92,65,-48,-23,0
455,-875,-86,61,-50,-24,0
453,-878,-83,54,-49,-23,0
456,-882,-79,49,-46,-22,0
458,-885,-79,46,-41,-22,0
452,-886,-76,46,-38,-26,0
446,-890,-74,51,-40,-31,0
442,-894,-70,53,-41,-34,0
442,-893,-65,52,-41,-36,0
443,-891,-60,46,-38,-36,0
450,-889,-55,39,-35,-35,0
456,-891,-53,33,-33,-35,0
462,-892,-52,32,-30,-35,0
460,-895,-52,32,-27,-35,0
453,-905,-49,30,-26,-32,0
441,-912,-50,34,-31,-29,0
441,-912,-50,40,-39,-26,0
433,-914,-51,40,-39,-26,0
432,-910,-52,48,-48,-24,0
434,-908,-51,55,-55,-22,0
440,-904,-52,59,-58,-21,0
444,-900,-51,62,-62,-19,0
448,-893,-52,62,-64,-19,0
444,-895,-57,60,-63,-20,0
445,-894,-56,54,-64,-18,0
451,-889,-56,46,-70,-14,0
451,-884,-56,40,-83,-12,0
449,-884,-50,38,-94,-13,0
447,-887,-47,40,-104,-16,0
447,-892,-47,52,-108,-17,0
451,-893,-50,61,-112,-21,0
449,-900,-60,60,-115,-23,0
442,-897,-80,59,-122,-22,0
436,-896,-92,68,-135,-22,0
439,-896,-83,87,-153,-29,0
432,-899,-71,92,-162,-37,0
432,-899,-71,92,-156,-38,0
429,-903,-56,92,-156,-38,0
433,-903,-53,91,-144,-34,0
442,-901,-63,92,-129,-32,0
446,-901,-69,97,-114,-36,0
444,-897,-73,98,-105,-37,0
440,-892,-78,93,-104,-36,0
443,-889,-74,87,-106,-36,0
445,-891,-68,83,-115,-38,0
443,-891,-67,77,-116,-38,0
444,-889,-66,69,-111,-36,0
448,-888,-69,65,-106,-35,0
449,-890,-77,61,-104,-35,0
448,-891,-76,57,-103,-35,0
446,-896,-81,53,-103,-37,0
447,-900,-76,53,-104,-38,0
447,-899,-72,53,-103,-37,0
445,-896,-69,53,-100,-36,0
442,-897,-70,52,-95,-35,0
444,-893,-68,50,-89,-32,0
444,-893,-68,45,-84,-29,0
447,-889,-68,45,-84,-29,0
451,-891,-65,40,-81,-26,0
455,-898,-63,41,-83,-24,0
452,-905,-66,49,-89,-23,0
450,-904,-63,59,-93,-23,0
449,-899,-65,72,-97,-25,0
451,-891,-68,30,-35,-28,0
449,-893,-67,30,-32,-30,0
453,-893,-62,33,-30,-29,0
454,-889,-66,32,-29,-27,0
457,-886,-69,32,-27,-26,0
455,-892,-65,30,-24,-27,0
454,-897,-60,30,-23,-26,0
446,-894,-58,30,-18,-27,0
447,-892,-61,34,-15,-29,0
450,-889,-61,38,-14,-31,0
451,-891,-60,38,-18,-30,0
450,-894,-57,37,-22,-32,0
453,-897,-50,39,-20,-32,0
453,-897,-50,40,-15,-32,0
449,-901,-49,40,-15,-32,0
446,-889,-51,39,-10,-32,0
455,-894,-54,40,-9,-31,0
457,-897,-56,42,-12,-32,0
448,-893,-51,39,-14,-30,0
445,-892,-45,36,-15,-32,0
446,-894,-48,32,-14,-31,0
445,-894,-48,28,-12,-27,0
445,-892,-49,25,-15,-27,0
443,-891,-52,25,-19,-28,0
445,-890,-50,27,-21,-30,0
447,-891,-53,28,-24,-31,0
449,-892,-50,26,-26,-30,0
452,-892,-51,28,-28,-30,0
454,-893,-51,30,-29,-32,0
455,-894,-50,31,-29,-34,0
452,-894,-51,30,-33,-35,0
447,-893,-51,30,-32,-34,0
447,-892,-47,29,-31,-34,0
447,-892,-47,30,-33,-34,0
448,-892,-49,30,-33,-34,0
447,-890,-48,29,-34,-33,0
451,-891,-47,26,-34,-33,0
452,-897,-50,24,-34,-31,0
453,-893,-44,25,-33,-30,0
452,-888,-44,22,-32,-30,0
456,-891,-47,27,-31,-34,0
460,-894,-47,31,-27,-36,0
459,-895,-48,27,-23,-35,0
458,-893,-48,25,-24,-32,0
454,-891,-48,25,-25,-32,0
455,-891,-45,26,-25,-31,0
454,-892,-46,31,-27,-32,0
452,-896,-51,31,-27,-33,0
451,-895,-54,30,-25,-32,0
455,-894,-52,32,-25,-31,0
460,-891,-50,35,-28,-32,0
458,-891,-51,33,-30,-32,0
457,-892,-50,31,-29,-32,0
457,-892,-50,30,-27,-31,0
458,-891,-48,30,-27,-31,0
460,-891,-47,32,-25,-30,0
458,-889,-51,34,-23,-31,0
454,-889,-54,37,-21,-32,0
452,-890,-58,39,-22,-33,0
452,-890,-61,36,-22,-32,0
455,-890,-59,32,-25,-31,0
456,-891,-57,30,-29,-31,0
456,-891,-51,28,-31,-32,0
453,-893,-50,28,-27,-32,0
455,-892,-53,25,-20,-30,0
456,-889,-53,22,-17,-29,0
453,-888,-57,21,-23,-30,0
448,-889,-56,24,-31,-32,0
446,-891,-56,24,-35,-34,0
451,-893,-51,23,-37,-33,0
457,-893,-50,25,-38,-32,0
460,-894,-49,30,-37,-31,0
456,-892,-52,35,-35,-34,0
456,-892,-52,34,-33,-36,0
456,-890,-52,34,-33,-36,0
457,-890,-57,32,-33,-35,0
456,-888,-59,30,-36,-35,0
455,-888,-57,31,-40,-36,0
453,-890,-55,30,-42,-35,0
456,-892,-58,29,-41,-34,0
458,-891,-57,30,-40,-34,0
462,-891,-57,30,-39,-32,0
462,-889,-59,29,-36,-30,0
465,-888,-55,28,-35,-31,0
466,-887,-51,30,-34,-32,0
465,-887,-54,32,-33,-32,0
460,-888,-56,34,-28,-34,0
457,-890,-59,36,-26,-36,0
458,-893,-58,34,-28,-35,0
459,-893,-54,34,-33,-35,0
460,-892,-54,34,-36,-33,0
463,-892,-51,33,-33,-32,0
463,-890,-51,33,-28,-31,0
463,-890,-52,32,-24,-30,0
462,-889,-52,32,-24,-30,0
459,-888,-53,32,-22,-30,0
457,-890,-54,32,-21,-31,0
455,-891,-53,31,-21,-32,0
447,-892,-51,31,-25,-32,0
448,-891,-51,31,-30,-33,0
452,-890,-48,28,-33,-29,0
454,-889,-53,29,-35,-28,0
452,-891,-53,30,-36,-30,0
453,-892,-55,28,-36,-31,0
455,-891,-56,27,-38,-30,0
458,-889,-55,28,-39,-29,0
457,-890,-50,29,-42,-30,0
453,-891,-51,31,-43,-33,0
455,-889,-50,34,-42,-34,0
456,-886,-52,34,-42,-33,0
456,-888,-56,34,-42,-34,0
458,-889,-57,33,-45,-35,0
459,-891,-57,34,-49,-36,0
459,-891,-55,35,-51,-35,0
462,-892,-55,35,-51,-35,0
465,-890,-51,32,-50,-32,0
464,-888,-50,33,-44,-32,0
464,-888,-50,37,-40,-34,0
464,-888,-53,39,-38,-35,0
463,-886,-53,38,-38,-35,0
462,-887,-51,36,-41,-35,0
460,-887,-51,34,-42,-34,0
460,-889,-50,34,-41,-34,0
458,-889,-50,32,-41,-33,0
455,-891,-51,33,-39,-33,0
454,-897,-52,31,-37,-32,0
463,-883,-49,28,-35,-27,0
466,-881,-50,26,-35,-25,0
454,-891,-51,18,-38,-30,0
457,-891,-52,18,-40,-27,0
460,-890,-51,18,-44,-26,0
460,-890,-51,21,-45,-26,0
461,-890,-50,21,-45,-27,0
462,-889,-50,20,-45,-27,0
459,-888,-51,22,-47,-29,0
459,-887,-50,23,-48,-30,0
458,-887,-49,20,-47,-30,0
458,-889,-51,18,-43,-29,0
462,-889,-51,17,-39,-29,0
462,-889,-49,15,-36,-28,0
462,-889,-49,15,-36,-28,0
464,-890,-48,14,-37,-27,0
466,-889,-47,11,-40,-25,0
464,-888,-51,12,-44,-23,0
461,-886,-54,14,-44,-24,0
458,-887,-57,14,-41,-25,0
460,-887,-59,13,-40,-24,0
460,-887,-59,13,-42,-24,0
463,-886,-59,11,-42,-24,0
463,-887,-58,10,-46,-25,0
465,-886,-55,11,-46,-26,0
465,-886,-55,11,-42,-25,0
461,-886,-58,12,-34,-25,0
461,-886,-61,14,-28,-25,0
461,-886,-65,14,-25,-25,0
462,-887,-63,17,-27,-26,0
465,-887,-62,18,-32,-25,0
466,-887,-61,17,-35,-24,0
468,-886,-58,17,-35,-24,0
468,-886,-57,20,-36,-23,0
469,-888,-55,21,-36,-24,0
467,-887,-59,18,-32,-23,0
466,-886,-62,13,-31,-19,0
476,-885,-57,15,-39,-17,0
482,-885,-60,29,-59,-15,0
475,-886,-67,50,-78,-20,0
459,-884,-72,74,-76,-33,0
459,-884,-72,84,-52,-43,0
446,-884,-74,84,-52,-43,0
451,-889,-75,67,-22,-38,0
464,-887,-77,44,-7,-26,0
472,-884,-70,31,-14,-22,0
468,-882,-64,25,-26,-25,0
458,-885,-64,21,-30,-27,0
454,-885,-68,14,-21,-25,0
454,-882,-69,7,-14,-23,0
455,-887,-73,0,-13,-19,0
455,-886,-73,-10,-16,-14,0
460,-883,-72,-16,-19,-11,0
467,-884,-68,-18,-23,-12,0
469,-888,-67,-15,-23,-14,0
468,-887,-66,-16,-16,-14,0
468,-888,-67,-18,-5,-13,0
472,-889,-67,-19,2,-14,0
468,-888,-67,-20,7,-15,0
464,-887,-65,-19,8,-16,0
460,-887,-65,-17,8,-16,0
460,-887,-65,-13,6,-16,0
457,-886,-63,-13,6,-16,0
451,-887,-67,-10,4,-17,0
450,-887,-64,-5,4,-19,0
453,-890,-61,0,2,-20,0
455,-895,-64,3,1,-21,0
455,-898,-67,7,0,-22,0
457,-897,-71,11,-2,-22,0
465,-893,-69,11,-7,-21,0
468,-888,-66,9,-10,-21,0
468,-889,-63,13,-12,-23,0
464,-892,-62,18,-9,-27,0
464,-891,-60,21,-4,-27,0
465,-889,-54,21,-2,-24,0
463,-889,-51,20,-2,-23,0
461,-887,-52,22,-2,-22,0
459,-885,-51,23,0,-22,0
459,-885,-51,21,2,-21,0
462,-886,-53,18,1,-19,0
463,-886,-52,15,-2,-18,0
463,-886,-52,12,-3,-17,0
459,-885,-54,12,-3,-17,0
455,-886,-60,7,-1,-15,0
456,-886,-66,0,2,-12,0
461,-886,-69,-4,4,-9,0
463,-884,-70,-5,1,-8,0
463,-885,-68,-5,-3,-10,0
460,-884,-70,-2,-7,-13,0
459,-886,-69,-1,-6,-14,0
461,-888,-67,-2,-2,-13,0
460,-890,-70,-4,2,-12,0
457,-889,-71,-6,8,-10,0
459,-889,-69,-4,11,-10,0
458,-888,-70,-4,14,-9,0
455,-889,-74,-8,14,-8,0
453,-889,-76,-9,12,-8,0
453,-891,-77,-8,9,-9,0
454,-892,-78,-7,5,-10,0
454,-891,-78,-9,4,-9,0
451,-890,-77,-8,2,-10,0
451,-890,-77,-7,0,-11,0
454,-890,-78,-7,0,-11,0
453,-889,-82,-9,0,-10,0
453,-888,-86,-11,0,-10,0
454,-886,-83,-9,-2,-11,0
454,-887,-80,-7,-6,-13,0
454,-889,-80,-5,-6,-13,0
457,-888,-79,-5,-4,-12,0
459,-889,-74,-4,-3,-12,0
456,-887,-74,0,-6,-13,0
453,-889,-77,4,-8,-16,0
451,-894,-78,8,-9,-17,0
450,-894,-77,10,-8,-16,0
447,-893,-78,9,-4,-14,0
448,-892,-79,7,-1,-13,0
449,-891,-80,6,0,-12,0
450,-892,-82,6,-3,-12,0
451,-892,-82,6,-5,-12,0
448,-890,-82,7,-7,-13,0
447,-891,-82,8,-7,-14,0
447,-891,-82,11,-8,-16,0
449,-892,-83,11,-8,-16,0
451,-892,-81,13,-11,-16,0
452,-892,-83,15,-11,-17,0
455,-891,-83,13,-12,-17,0
454,-891,-81,13,-13,-17,0
450,-887,-84,13,-16,-19,0
452,-891,-91,13,-19,-20,0
453,-888,-90,11,-20,-20,0
448,-896,-77,30,-31,-28,0
447,-895,-77,32,-32,-29,0
446,-895,-79,34,-32,-29,0
443,-895,-81,34,-32,-30,0
444,-894,-83,34,-33,-30,0
444,-893,-84,34,-37,-30,0
444,-893,-84,34,-37,-30,0
444,-894,-84,33,-41,-30,0
444,-892,-84,33,-44,-30,0
444,-892,-83,33,-46,-32,0
445,-893,-81,34,-48,-33,0
446,-892,-84,35,-48,-34,0
445,-889,-82,36,-45,-35,0
449,-889,-79,35,-46,-35,0
450,-890,-76,34,-46,-34,0
451,-891,-77,32,-49,-33,0
451,-892,-79,27,-48,-32,0
449,-891,-83,24,-49,-31,0
447,-890,-87,24,-51,-32,0
447,-890,-86,25,-53,-32,0
447,-891,-85,26,-52,-33,0
448,-890,-83,26,-50,-33,0
448,-892,-82,25,-48,-33,0
450,-893,-82,24,-47,-33,0
450,-894,-82,25,-47,-33,0
449,-894,-80,25,-47,-33,0
449,-894,-80,25,-47,-33,0
450,-894,-78,27,-48,-33,0
449,-893,-76,26,-48,-32,0
434,-885,-74,25,-47,-33,0
452,-896,-92,27,-46,-33,0
456,-897,-83,26,-41,-31,0
449,-896,-86,23,-45,-32,0
447,-894,-88,22,-47,-32,0
448,-890,-88,20,-47,-30,0
450,-892,-86,18,-48,-31,0
449,-893,-85,18,-50,-32,0
448,-893,-86,18,-51,-32,0
446,-891,-83,19,-51,-33,0
446,-892,-86,18,-50,-33,0
446,-892,-90,17,-50,-33,0
448,-892,-91,16,-51,-32,0
449,-891,-91,15,-52,-31,0
451,-889,-92,15,-52,-30,0
453,-891,-90,14,-50,-30,0
451,-891,-89,14,-49,-31,0
451,-891,-89,14,-49,-31,0
450,-894,-91,15,-47,-31,0
450,-892,-90,14,-45,-30,0
450,-892,-90,14,-44,-31,0
450,-891,-91,16,-45,-31,0
452,-891,-92,18,-46,-32,0
451,-890,-92,20,-46,-32,0
450,-890,-91,22,-46,-33,0
447,-890,-90,23,-46,-34,0
447,-890,-88,24,-47,-35,0
446,-893,-88,24,-47,-35,0
451,-893,-89,24,-47,-35,0
452,-892,-91,23,-47,-34,0
451,-892,-92,23,-46,-34,0
451,-890,-92,24,-46,-35,0
453,-889,-91,24,-45,-35,0
453,-889,-93,24,-45,-35,0
453,-889,-93,25,-44,-35,0
453,-889,-95,26,-44,-36,0
453,-889,-94,25,-44,-35,0
453,-889,-94,25,-44,-36,0
452,-890,-94,25,-45,-36,0
453,-888,-94,24,-46,-36,0
453,-889,-97,23,-46,-35,0
452,-886,-95,22,-44,-35,0
450,-888,-95,23,-44,-36,0
451,-890,-94,24,-43,-36,0
450,-891,-94,24,-44,-36,0
452,-891,-92,26,-44,-36,0
452,-892,-93,26,-45,-36,0
452,-890,-92,27,-44,-36,0
453,-890,-92,27,-43,-36,0
453,-890,-93,28,-42,-36,0
451,-891,-94,29,-43,-36,0
453,-890,-94,29,-43,-36,0
452,-890,-93,29,-44,-37,0
452,-889,-94,31,-45,-37,0
452,-888,-92,33,-45,-37,0
453,-888,-95,34,-44,-37,0
452,-887,-94,34,-42,-37,0
452,-887,-94,34,-42,-38,0
455,-885,-95,35,-42,-38,0
456,-887,-98,35,-42,-38,0
457,-885,-99,36,-43,-37,0
456,-886,-99,36,-45,-37,0
456,-886,-98,35,-47,-37,0
456,-885,-99,36,-47,-37,0
457,-885,-98,35,-47,-36,0
457,-884,-98,35,-46,-37,0
457,-885,-99,36,-46,-37,0
456,-885,-100,37,-46,-37,0
456,-886,-101,38,-46,-37,0
457,-885,-101,39,-48,-38,0
459,-885,-100,40,-49,-38,0
463,-886,-98,40,-51,-39,0
466,-887,-99,42,-51,-39,0
469,-885,-92,43,-54,-41,0
473,-883,-93,44,-56,-44,0
471,-882,-92,46,-51,-45,0
468,-880,-93,45,-43,-45,0
468,-880,-93,45,-35,-44,0
463,-880,-96,41,-35,-44,0
461,-880,-101,39,-33,-42,0
462,-880,-103,38,-35,-40,0
464,-882,-102,37,-37,-38,0
465,-881,-100,35,-40,-38,0
464,-883,-96,36,-42,-37,0
463,-883,-93,36,-41,-37,0
464,-882,-92,35,-37,-37,0
465,-881,-94,34,-32,-36,0
466,-881,-96,33,-27,-36,0
466,-882,-98,34,-24,-37,0
464,-883,-96,33,-22,-38,0
463,-883,-95,33,-22,-37,0
460,-884,-94,32,-23,-36,0
458,-884,-92,32,-24,-36,0
458,-884,-92,31,-25,-35,0
460,-883,-89,30,-26,-34,0
461,-883,-88,30,-27,-34,0
463,-883,-88,31,-27,-34,0
463,-883,-88,31,-27,-35,0
463,-885,-88,32,-27,-35,0
472,-880,-89,40,-28,-33,0
471,-881,-90,40,-26,-33,0
470,-880,-90,40,-24,-33,0
471,-879,-90,40,-23,-32,0
469,-879,-91,39,-23,-31,0
470,-878,-91,38,-23,-31,0
469,-879,-90,36,-22,-30,0
469,-880,-91,33,-21,-30,0
467,-879,-91,31,-19,-28,0
468,-880,-91,29,-18,-27,0
468,-878,-92,27,-17,-26,0
469,-879,-93,27,-17,-26,0
468,-879,-93,27,-18,-26,0
468,-879,-93,26,-19,-26,0
468,-879,-94,26,-19,-26,0
468,-880,-93,26,-21,-26,0
467,-881,-91,27,-22,-27,0
466,-882,-90,29,-23,-27,0
465,-882,-88,30,-23,-28,0
465,-883,-88,31,-24,-27,0
467,-881,-87,32,-24,-27,0
469,-881,-89,33,-23,-28,0
468,-881,-90,35,-21,-27,0
464,-882,-90,35,-20,-27,0
464,-881,-91,35,-20,-27,0
464,-882,-90,35,-22,-26,0
466,-882,-88,35,-23,-26,0
467,-883,-88,35,-25,-26,0
467,-883,-87,35,-26,-27,0
466,-884,-89,36,-26,-27,0
467,-886,-91,36,-25,-28,0
467,-885,-91,36,-23,-27,0
468,-884,-91,35,-21,-27,0
468,-884,-91,34,-21,-28,0
467,-882,-87,34,-21,-28,0
465,-882,-85,34,-21,-28,0
461,-884,-84,35,-22,-28,0
460,-883,-85,36,-24,-29,0
463,-882,-83,36,-26,-27,0
466,-883,-82,36,-28,-27,0
469,-885,-83,36,-30,-27,0
474,-882,-81,37,-32,-28,0
473,-881,-81,37,-32,-29,0
471,-883,-83,38,-29,-29,0
468,-882,-84,37,-24,-28,0
465,-881,-86,36,-22,-28,0
463,-880,-87,36,-24,-28,0
463,-880,-86,36,-29,-28,0
464,-883,-83,37,-32,-27,0
467,-883,-82,37,-32,-27,0
467,-885,-84,37,-31,-26,0
468,-884,-83,36,-31,-26,0
469,-882,-83,36,-29,-27,0
469,-882,-83,35,-29,-28,0
471,-881,-82,35,-29,-28,0
470,-881,-84,36,-28,-28,0
471,-883,-83,36,-27,-29,0
468,-885,-86,36,-26,-28,0
468,-885,-86,36,-25,-28,0
465,-884,-84,36,-27,-27,0
465,-883,-82,36,-29,-27,0
464,-882,-80,36,-30,-26,0
462,-881,-78,36,-30,-25,0
463,-881,-77,36,-29,-26,0
462,-881,-77,37,-29,-26,0
462,-884,-78,38,-30,-27,0
464,-884,-78,39,-31,-28,0
463,-886,-78,39,-33,-28,0
464,-884,-78,40,-36,-28,0
467,-888,-82,42,-39,-28,0
466,-884,-80,43,-40,-27,0
465,-883,-81,43,-41,-28,0
466,-884,-80,45,-43,-29,0
466,-884,-80,45,-44,-27,0
466,-884,-80,45,-44,-27,0
465,-884,-78,45,-44,-28,0
465,-884,-79,46,-42,-28,0
466,-884,-79,47,-41,-28,0
467,-883,-80,47,-40,-27,0
469,-881,-81,48,-40,-27,0
471,-881,-81,49,-40,-28,0
469,-881,-81,50,-40,-28,0
465,-883,-81,49,-41,-28,0
463,-881,-80,51,-42,-29,0
468,-885,-80,52,-44,-29,0
469,-886,-76,51,-43,-29,0
467,-885,-77,50,-40,-28,0
466,-885,-76,51,-39,-29,0
467,-885,-76,50,-37,-28,0
467,-884,-75,48,-36,-28,0
464,-882,-76,47,-36,-27,0
463,-883,-76,46,-36,-28,0
462,-884,-77,46,-39,-28,0
462,-884,-77,47,-41,-29,0
463,-884,-75,47,-41,-29,0
464,-884,-76,47,-44,-29,0
467,-885,-76,47,-45,-29,0
467,-885,-75,47,-44,-29,0
466,-884,-76,47,-44,-29,0
467,-884,-76,47,-43,-29,0
466,-884,-76,46,-42,-29,0
467,-883,-76,47,-42,-29,0
467,-882,-75,46,-42,-29,0
467,-883,-73,46,-43,-29,0
466,-882,-73,45,-42,-29,0
466,-882,-74,45,-42,-30,0
465,-883,-74,48,-43,-31,0
465,-884,-75,49,-44,-32,0
466,-883,-74,50,-44,-31,0
469,-883,-74,47,-45,-30,0
473,-881,-71,35,-50,-26,0
481,-873,-66,15,-60,-18,0
490,-873,-48,0,-70,-9,0
490,-873,-48,0,-67,-6,0
503,-886,-25,0,-67,-6,0
505,-902,-29,-1,-47,-9,0
486,-903,-59,-11,-16,-14,0
463,-887,-79,-8,12,-17,0
446,-871,-94,6,15,-19,0
436,-866,-121,21,0,-23,0
437,-868,-133,31,-10,-27,0
444,-871,-121,32,-23,-26,0
447,-883,-110,21,-50,-21,0
439,-880,-91,2,-79,-17,0
441,-874,-73,-12,-95,-16,0
458,-878,-64,-4,-95,-22,0
473,-882,-58,18,-84,-31,0
476,-885,-58,31,-69,-38,0
469,-883,-74,34,-16,-27,0
466,-884,-73,37,-20,-29,0
462,-885,-74,38,-25,-30,0
459,-884,-76,37,-27,-29,0
459,-881,-76,38,-28,-29,0
463,-881,-72,39,-31,-29,0
462,-883,-73,35,-39,-28,0
460,-884,-76,31,-41,-26,0
463,-883,-77,30,-40,-26,0
466,-882,-79,31,-41,-26,0
467,-881,-81,31,-42,-27,0
467,-883,-83,31,-42,-27,0
468,-884,-80,31,-40,-26,0
470,-885,-76,31,-37,-26,0
469,-886,-75,30,-35,-26,0
467,-885,-77,31,-35,-26,0
467,-885,-76,34,-35,-27,0
467,-885,-76,36,-35,-28,0
466,-885,-78,37,-33,-27,0
466,-885,-78,37,-33,-27,0
465,-886,-78,37,-32,-27,0
466,-886,-78,35,-33,-27,0
465,-884,-79,35,-36,-27,0
465,-884,-78,36,-38,-28,0
463,-885,-77,39,-39,-29,0
459,-884,-75,39,-37,-29,0
460,-884,-79,38,-34,-27,0
463,-885,-76,38,-33,-26,0
465,-886,-78,39,-34,-26,0
465,-887,-77,41,-36,-28,0
467,-886,-74,40,-35,-27,0
467,-886,-75,41,-34,-28,0
466,-885,-75,46,-32,-28,0
463,-884,-75,51,-31,-30,0
462,-884,-75,52,-31,-31,0
462,-885,-78,49,-33,-29,0
464,-886,-79,46,-35,-27,0
467,-886,-79,47,-36,-28,0
467,-885,-81,48,-37,-30,0
467,-885,-81,48,-37,-30,0
464,-883,-83,48,-37,-32,0
462,-881,-85,48,-36,-33,0
462,-882,-87,49,-35,-33,0
463,-880,-87,50,-36,-34,0
461,-881,-90,50,-37,-33,0
462,-883,-90,50,-37,-34,0
461,-883,-89,50,-38,-35,0
462,-884,-88,49,-40,-35,0
461,-881,-86,48,-44,-34,0
462,-881,-84,47,-48,-35,0
464,-880,-80,48,-54,-37,0
466,-881,-75,49,-58,-38,0
469,-883,-71,47,-61,-37,0
469,-884,-68,45,-62,-36,0
468,-887,-68,41,-59,-34,0
467,-888,-71,36,-52,-32,0
465,-886,-76,32,-45,-29,0
464,-885,-80,30,-39,-28,0
464,-884,-83,32,-39,-29,0
464,-884,-83,32,-39,-29,0
465,-882,-83,33,-39,-29,0
466,-883,-83,34,-41,-29,0
468,-883,-80,36,-43,-29,0
470,-885,-77,36,-46,-30,0
470,-885,-74,38,-47,-31,0
471,-884,-72,39,-46,-31,0
472,-884,-72,40,-45,-32,0
472,-882,-73,39,-42,-32,0
470,-881,-75,39,-39,-32,0
469,-883,-76,38,-38,-32,0
467,-884,-79,37,-38,-32,0
466,-884,-78,37,-39,-31,0
466,-882,-77,36,-42,-31,0
467,-883,-75,35,-44,-31,0
468,-883,-75,35,-45,-30,0
469,-884,-75,34,-45,-29,0
470,-884,-74,34,-45,-30,0
470,-883,-73,35,-45,-30,0
469,-884,-73,36,-45,-30,0
469,-884,-73,36,-45,-31,0
469,-883,-73,36,-46,-31,0
467,-883,-75,35,-45,-30,0
467,-883,-76,35,-45,-30,0
468,-883,-76,36,-45,-30,0
470,-881,-77,37,-45,-30,0
470,-881,-76,38,-45,-30,0
470,-882,-77,39,-46,-31,0
471,-884,-76,40,-46,-32,0
469,-884,-75,42,-45,-31,0
469,-883,-74,41,-44,-31,0
468,-882,-74,41,-43,-31,0
469,-881,-75,41,-43,-31,0
469,-882,-74,42,-44,-30,0
471,-883,-73,42,-44,-30,0
471,-883,-73,43,-44,-30,0
471,-885,-72,44,-44,-31,0
471,-884,-71,45,-42,-31,0
471,-885,-71,46,-41,-31,0
472,-884,-69,46,-40,-31,0
472,-884,-69,46,-39,-32,0
470,-883,-69,47,-39,-32,0
468,-882,-68,49,-39,-31,0
469,-882,-68,49,-37,-31,0
471,-883,-68,48,-36,-31,0
470,-884,-67,48,-36,-30,0
468,-882,-71,46,-36,-29,0
469,-881,-77,46,-36,-28,0
468,-881,-78,48,-36,-29,0
467,-880,-78,47,-39,-30,0
467,-880,-76,45,-41,-30,0
469,-880,-75,43,-43,-30,0
471,-882,-74,41,-43,-29,0
473,-883,-74,40,-42,-29,0
473,-882,-74,38,-41,-29,0
472,-882,-73,36,-39,-30,0
472,-881,-73,34,-37,-30,0
470,-880,-74,33,-36,-29,0
470,-881,-74,33,-35,-29,0
468,-881,-76,32,-34,-29,0
468,-881,-76,32,-34,-29,0
468,-881,-74,31,-34,-29,0
470,-881,-72,31,-35,-28,0
470,-882,-70,30,-37,-27,0
468,-882,-69,32,-38,-27,0
469,-883,-67,34,-38,-28,0
468,-882,-65,36,-37,-29,0
469,-884,-66,38,-37,-29,0
470,-884,-67,40,-37,-29,0
470,-884,-65,42,-38,-28,0
470,-883,-63,43,-39,-28,0
469,-883,-64,43,-38,-28,0
470,-882,-65,43,-38,-28,0
470,-882,-65,43,-36,-28,0
470,-883,-67,43,-36,-28,0
470,-884,-67,43,-35,-28,0
470,-883,-67,42,-33,-28,0
472,-882,-66,41,-32,-28,0
472,-882,-66,40,-32,-27,0
472,-880,-66,38,-31,-27,0
472,-881,-67,37,-30,-27,0
472,-880,-68,37,-29,-28,0
472,-881,-69,36,-29,-27,0
473,-882,-66,35,-27,-27,0
470,-883,-67,35,-27,-28,0
470,-883,-67,34,-28,-28,0
470,-883,-66,33,-29,-28,0
469,-883,-63,33,-30,-27,0
470,-882,-61,32,-30,-27,0
470,-883,-59,32,-30,-27,0
470,-882,-60,32,-29,-27,0
472,-885,-59,33,-29,-27,0
471,-885,-60,34,-29,-28,0
471,-885,-60,35,-29,-28,0
469,-884,-61,35,-29,-28,0
469,-884,-62,35,-29,-28,0
469,-882,-61,35,-29,-28,0
468,-883,-60,36,-30,-28,0
467,-882,-61,36,-31,-28,0
468,-883,-59,36,-33,-29,0
470,-884,-60,37,-35,-29,0
471,-885,-59,36,-35,-29,0
470,-886,-60,37,-36,-30,0
469,-885,-59,37,-34,-30,0
470,-884,-60,35,-33,-30,0
472,-882,-62,35,-32,-29,0
472,-882,-61,34,-32,-28,0
474,-883,-61,33,-33,-27,0
472,-882,-60,33,-34,-27,0
473,-883,-60,33,-34,-27,0
470,-884,-57,34,-34,-28,0
469,-884,-58,34,-32,-28,0
468,-882,-58,34,-31,-27,0
468,-882,-58,34,-30,-28,0
466,-882,-58,34,-30,-28,0
468,-883,-60,34,-31,-28,0
471,-884,-58,34,-32,-28,0
470,-884,-57,33,-32,-27,0
472,-883,-56,34,-32,-27,0
471,-884,-58,34,-33,-27,0
472,-884,-57,34,-32,-28,0
469,-885,-58,35,-32,-28,0
469,-884,-60,36,-33,-29,0
469,-884,-60,37,-35,-28,0
470,-884,-59,37,-37,-28,0
470,-884,-59,37,-38,-28,0
470,-884,-58,37,-37,-28,0
468,-884,-59,37,-36,-28,0
470,-882,-60,37,-35,-27,0
471,-881,-60,36,-35,-28,0
473,-881,-60,37,-35,-28,0
473,-882,-60,36,-36,-28,0
474,-881,-60,35,-36,-28,0
474,-881,-60,35,-36,-29,0
472,-882,-61,35,-36,-29,0
471,-882,-60,35,-35,-29,0
470,-883,-59,35,-35,-29,0
470,-882,-59,35,-35,-29,0
471,-882,-59,34,-35,-28,0
472,-882,-58,33,-35,-28,0
473,-882,-57,33,-34,-28,0
471,-882,-57,32,-33,-27,0
473,-883,-57,33,-33,-28,0
472,-883,-59,33,-32,-28,0
471,-883,-59,33,-33,-28,0
472,-883,-58,33,-33,-28,0
470,-883,-59,33,-33,-29,0
470,-883,-58,33,-34,-30,0
472,-883,-58,32,-35,-29,0
471,-883,-59,31,-35,-28,0
471,-883,-61,31,-34,-28,0
472,-883,-62,30,-34,-28,0
470,-882,-62,29,-33,-28,0
470,-882,-62,30,-33,-28,0
470,-881,-62,30,-33,-28,0
471,-882,-62,30,-33,-28,0
472,-882,-63,31,-33,-28,0
472,-881,-63,31,-33,-28,0
471,-881,-62,32,-32,-28,0
472,-880,-61,32,-32,-29,0
473,-881,-60,32,-32,-28,0
474,-882,-60,33,-31,-29,0
474,-883,-58,32,-30,-30,0
472,-883,-58,32,-28,-30,0
472,-882,-58,32,-27,-30,0
471,-882,-59,31,-27,-31,0
471,-883,-59,31,-26,-30,0
469,-883,-60,30,-26,-30,0
470,-883,-59,31,-28,-30,0
470,-884,-57,31,-30,-30,0
471,-883,-57,31,-32,-29,0
471,-882,-57,30,-33,-29,0
471,-883,-57,31,-34,-30,0
471,-883,-57,32,-34,-31,0
469,-883,-57,32,-34,-31,0
468,-882,-56,33,-35,-31,0
468,-881,-57,33,-35,-32,0
471,-881,-58,33,-35,-32,0
472,-884,-55,32,-34,-33,0
474,-885,-56,30,-34,-32,0
472,-885,-55,30,-33,-33,0
471,-883,-55,30,-33,-34,0
473,-881,-56,29,-32,-34,0
473,-882,-58,29,-31,-34,0
473,-884,-57,29,-31,-34,0
471,-882,-56,28,-32,-34,0
470,-882,-57,28,-32,-34,0
469,-881,-56,30,-33,-34,0
469,-881,-54,29,-34,-34,0
470,-882,-52,28,-34,-33,0
470,-883,-51,28,-33,-33,0
472,-882,-50,29,-33,-33,0
471,-881,-51,29,-33,-32,0
471,-881,-51,30,-34,-33,0
472,-882,-52,30,-34,-33,0
470,-883,-54,32,-36,-34,0
473,-886,-55,35,-37,-34,0
477,-877,-60,28,-40,-32,0
479,-878,-59,28,-39,-32,0
479,-879,-59,27,-37,-31,0
480,-879,-57,26,-36,-32,0
479,-880,-57,25,-35,-30,0
479,-877,-57,24,-33,-30,0
478,-878,-58,23,-33,-30,0
477,-879,-58,24,-33,-30,0
475,-879,-59,23,-33,-30,0
476,-880,-60,22,-35,-30,0
476,-880,-60,22,-35,-30,0
477,-879,-61,22,-38,-30,0
478,-879,-60,21,-39,-29,0
479,-879,-58,21,-40,-30,0
478,-879,-57,21,-39,-29,0
479,-879,-58,21,-37,-29,0
478,-880,-59,21,-35,-29,0
477,-880,-62,22,-35,-28,0
477,-879,-62,23,-36,-28,0
477,-879,-62,24,-38,-29,0
476,-879,-60,25,-39,-29,0
477,-879,-61,26,-41,-30,0
477,-878,-60,26,-42,-30,0
479,-878,-58,26,-42,-30,0
480,-879,-60,26,-43,-30,0
479,-881,-60,25,-42,-30,0
477,-880,-61,25,-40,-31,0
475,-879,-62,24,-39,-32,0
478,-878,-64,23,-37,-31,0
477,-878,-63,22,-37,-30,0
477,-878,-63,22,-37,-29,0
480,-879,-64,21,-37,-29,0
480,-880,-66,19,-37,-28,0
480,-880,-64,19,-37,-28,0
478,-880,-64,20,-37,-28,0
478,-879,-63,20,-37,-28,0
477,-879,-63,19,-37,-28,0
476,-880,-63,19,-36,-29,0
476,-880,-63,19,-35,-29,0
478,-881,-63,20,-35,-29,0
480,-881,-63,20,-36,-30,0
481,-880,-61,21,-36,-30,0
483,-879,-60,23,-36,-30,0
482,-878,-58,23,-36,-30,0
481,-879,-56,24,-35,-31,0
480,-878,-58,25,-34,-31,0
481,-877,-59,26,-35,-31,0
481,-877,-59,25,-35,-30,0
482,-878,-60,24,-36,-28,0
484,-877,-61,22,-37,-27,0
484,-877,-61,22,-35,-26,0
483,-876,-63,21,-35,-26,0
485,-875,-63,20,-33,-25,0
486,-875,-64,18,-30,-24,0
485,-874,-66,16,-28,-24,0
485,-873,-68,15,-25,-24,0
482,-872,-71,14,-22,-24,0
482,-873,-71,12,-19,-24,0
482,-876,-72,12,-17,-24,0
482,-876,-71,12,-16,-24,0
483,-875,-71,10,-16,-23,0
481,-875,-70,10,-14,-24,0
481,-876,-69,9,-13,-23,0
480,-876,-70,8,-11,-23,0
479,-877,-71,7,-9,-24,0
476,-875,-71,7,-10,-24,0
472,-875,-72,4,-10,-23,0
473,-877,-71,3,-12,-23,0
476,-879,-68,6,-15,-23,0
476,-882,-66,9,-18,-24,0
476,-882,-66,9,-19,-24,0
474,-883,-65,9,-19,-24,0
473,-883,-67,8,-16,-23,0
472,-883,-70,8,-15,-23,0
470,-882,-69,8,-17,-22,0
470,-881,-69,8,-20,-22,0
473,-881,-66,8,-23,-22,0
473,-881,-64,9,-26,-22,0
474,-881,-63,11,-28,-23,0
472,-881,-65,13,-30,-24,0
473,-882,-68,16,-32,-25,0
475,-881,-69,18,-35,-25,0
475,-878,-70,19,-37,-25,0
475,-879,-71,18,-38,-25,0
476,-879,-70,18,-39,-24,0
475,-880,-70,18,-39,-24,0
474,-879,-71,19,-39,-24,0
474,-880,-72,20,-39,-23,0
473,-879,-73,19,-40,-23,0
474,-879,-73,20,-40,-23,0
474,-879,-73,20,-41,-24,0
475,-880,-73,21,-41,-24,0
477,-879,-73,22,-42,-24,0
480,-881,-72,23,-42,-25,0
478,-881,-72,25,-40,-25,0
475,-881,-73,25,-39,-26,0
473,-881,-75,26,-39,-26,0
471,-879,-75,26,-40,-26,0
469,-878,-74,25,-41,-25,0
462,-879,-72,24,-42,-27,0
478,-873,-72,24,-44,-29,0
497,-883,-77,24,-42,-21,0
479,-883,-73,23,-39,-22,0
473,-884,-74,27,-41,-28,0
474,-882,-70,28,-40,-26,0
478,-878,-71,24,-36,-25,0
483,-877,-73,24,-32,-24,0
481,-877,-75,24,-30,-25,0
480,-876,-76,24,-30,-26,0
478,-876,-74,22,-30,-26,0
478,-876,-74,22,-30,-27,0
476,-878,-72,23,-29,-27,0
472,-881,-70,23,-29,-27,0
471,-882,-69,22,-29,-26,0
470,-881,-71,23,-28,-25,0
470,-882,-73,22,-27,-25,0
470,-880,-76,22,-28,-25,0
472,-878,-78,22,-29,-23,0
476,-877,-79,23,-32,-22,0
475,-878,-78,23,-35,-22,0
475,-879,-77,25,-37,-25,0
476,-881,-77,28,-38,-25,0
478,-881,-77,30,-39,-25,0
478,-880,-78,32,-40,-27,0
476,-878,-79,32,-40,-29,0
475,-879,-80,33,-40,-30,0
477,-880,-79,33,-40,-31,0
476,-880,-77,31,-39,-30,0
474,-879,-77,36,-40,-26,0
474,-878,-75,35,-41,-27,0
475,-877,-76,35,-42,-27,0
476,-877,-76,35,-42,-27,0
478,-879,-77,35,-41,-27,0
479,-879,-77,34,-40,-27,0
479,-878,-78,34,-39,-27,0
478,-879,-78,35,-37,-28,0
479,-879,-79,36,-36,-28,0
480,-878,-78,36,-35,-28,0
480,-877,-77,36,-34,-28,0
479,-878,-76,35,-32,-28,0
477,-878,-76,34,-31,-28,0
477,-878,-76,34,-31,-28,0
477,-877,-77,33,-30,-28,0
475,-878,-74,30,-30,-28,0
477,-879,-74,29,-30,-28,0
476,-881,-74,30,-29,-27,0
475,-880,-74,30,-28,-27,0
475,-880,-75,29,-27,-27,0
474,-879,-73,29,-27,-26,0
472,-878,-73,30,-28,-26,0
474,-879,-73,30,-28,-26,0
476,-879,-72,31,-30,-26,0
477,-880,-72,32,-30,-26,0
478,-881,-73,32,-29,-26,0
477,-880,-72,33,-29,-27,0
478,-878,-71,33,-27,-28,0
479,-878,-74,33,-25,-28,0
480,-878,-74,33,-24,-28,0
479,-879,-73,33,-24,-28,0
477,-878,-76,31,-23,-27,0
477,-878,-76,30,-23,-27,0
477,-878,-76,30,-23,-27,0
476,-878,-73,30,-23,-27,0
475,-878,-73,29,-23,-26,0
474,-878,-73,28,-22,-25,0
473,-877,-72,28,-21,-25,0
473,-877,-71,28,-21,-26,0
473,-879,-71,28,-23,-26,0
474,-879,-69,27,-24,-26,0
473,-880,-68,27,-26,-27,0
475,-881,-68,27,-27,-27,0
476,-881,-68,28,-27,-27,0
477,-882,-70,29,-27,-27,0
476,-882,-71,30,-28,-27,0
475,-880,-73,32,-29,-28,0
474,-881,-72,32,-29,-29,0
473,-881,-70,32,-29,-28,0
472,-883,-69,31,-29,-28,0
469,-880,-68,30,-29,-28,0
475,-876,-69,30,-29,-27,0
480,-874,-71,32,-30,-25,0
480,-874,-71,32,-30,-27,0
478,-875,-72,37,-34,-27,0
476,-880,-72,39,-37,-29,0
474,-883,-70,37,-37,-28,0
478,-879,-69,33,-33,-26,0
478,-877,-70,30,-31,-25,0
479,-877,-71,30,-30,-26,0
477,-879,-71,30,-32,-27,0
476,-879,-70,31,-34,-28,0
476,-879,-68,31,-35,-28,0
476,-880,-67,31,-35,-28,0
476,-880,-68,30,-34,-27,0
475,-880,-69,30,-33,-26,0
476,-881,-69,29,-32,-26,0
477,-878,-69,29,-32,-26,0
476,-878,-68,29,-33,-26,0
477,-879,-68,30,-33,-26,0
477,-881,-68,30,-33,-27,0
477,-880,-67,31,-32,-27,0
477,-881,-69,31,-32,-26,0
477,-881,-69,31,-32,-27,0
477,-880,-68,31,-31,-27,0
477,-878,-68,32,-32,-27,0
477,-878,-65,30,-33,-26,0
476,-878,-65,30,-32,-25,0
474,-879,-65,30,-32,-25,0
474,-879,-65,30,-30,-24,0
473,-880,-69,29,-28,-22,0
473,-881,-71,27,-28,-21,0
475,-881,-69,28,-30,-21,0
477,-881,-66,30,-33,-23,0
478,-881,-64,33,-34,-25,0
479,-882,-64,34,-33,-27,0
477,-880,-66,35,-31,-27,0
475,-879,-69,35,-31,-28,0
472,-880,-71,35,-32,-28,0
472,-879,-74,34,-35,-27,0
472,-878,-73,32,-38,-26,0
472,-878,-72,30,-39,-26,0
475,-877,-71,29,-39,-25,0
475,-877,-71,29,-39,-24,0
476,-878,-70,28,-38,-24,0
477,-878,-71,27,-36,-23,0
481,-878,-72,27,-36,-23,0
480,-876,-72,26,-35,-23,0
482,-876,-71,27,-36,-24,0
480,-876,-69,29,-35,-26,0
479,-877,-68,31,-34,-28,0
475,-876,-68,32,-33,-27,0
471,-878,-71,30,-30,-27,0
471,-879,-73,29,-30,-26,0
474,-881,-74,29,-32,-25,0
478,-883,-71,31,-35,-26,0
478,-882,-68,32,-35,-27,0
479,-881,-67,31,-32,-27,0
479,-879,-68,29,-28,-27,0
479,-877,-73,29,-25,-27,0
475,-878,-73,29,-25,-28,0
470,-878,-74,28,-28,-27,0
468,-878,-74,27,-31,-28,0
468,-878,-74,27,-31,-27,0
468,-878,-72,26,-33,-27,0
470,-879,-70,25,-35,-26,0
474,-879,-67,23,-36,-25,0
473,-878,-66,23,-35,-24,0
475,-880,-65,23,-34,-25,0
473,-880,-64,24,-34,-26,0
472,-882,-65,24,-33,-25,0
471,-884,-67,24,-32,-25,0
470,-884,-68,25,-34,-25,0
473,-884,-69,28,-37,-25,0
474,-883,-68,30,-39,-26,0
473,-884,-67,31,-40,-26,0
474,-883,-68,32,-40,-26,0
472,-881,-68,33,-41,-26,0
472,-879,-76,39,-49,-28,0
474,-880,-75,39,-48,-28,0
475,-881,-76,38,-47,-27,0
476,-880,-77,37,-47,-26,0
476,-879,-77,36,-46,-26,0
476,-879,-76,35,-46,-26,0
475,-879,-75,35,-45,-26,0
475,-879,-75,35,-43,-27,0
475,-879,-76,35,-41,-26,0
475,-878,-76,34,-40,-27,0
476,-877,-76,33,-40,-27,0
475,-877,-74,32,-41,-26,0
474,-880,-75,32,-41,-26,0
476,-883,-75,34,-40,-27,0
476,-883,-74,34,-38,-26,0
475,-882,-74,35,-36,-27,0
474,-880,-74,35,-34,-27,0
473,-880,-74,35,-33,-28,0
473,-880,-74,34,-33,-28,0
472,-880,-73,34,-33,-28,0
472,-882,-73,33,-31,-27,0
472,-882,-74,32,-31,-26,0
473,-882,-75,31,-30,-26,0
473,-882,-77,33,-31,-26,0
472,-880,-76,33,-31,-27,0
472,-880,-73,33,-32,-28,0
474,-879,-73,33,-32,-29,0
474,-879,-71,33,-32,-29,0
473,-882,-71,32,-31,-28,0
474,-881,-72,30,-30,-27,0
475,-882,-72,29,-28,-26,0
474,-885,-72,29,-27,-26,0
472,-884,-72,29,-28,-26,0
470,-882,-70,29,-28,-26,0
469,-881,-68,30,-29,-27,0
469,-880,-66,30,-30,-27,0
469,-882,-66,30,-31,-27,0
470,-883,-66,32,-32,-27,0
470,-883,-66,32,-33,-27,0
470,-883,-66,33,-33,-27,0
469,-883,-67,34,-34,-28,0
470,-884,-67,35,-35,-28,0
471,-883,-69,37,-37,-29,0
471,-882,-69,38,-38,-29,0
470,-881,-69,38,-39,-29,0
470,-882,-69,38,-41,-29,0
471,-883,-69,37,-42,-29,0
472,-882,-69,36,-43,-28,0
471,-882,-70,36,-43,-27,0
471,-881,-70,35,-42,-27,0
473,-881,-72,36,-42,-27,0
475,-880,-72,37,-43,-27,0
476,-879,-72,37,-42,-28,0
476,-881,-72,36,-42,-27,0
474,-881,-71,36,-40,-28,0
473,-881,-72,36,-40,-28,0
472,-880,-72,36,-40,-28,0
471,-879,-70,36,-40,-28,0
471,-879,-70,36,-41,-28,0
471,-878,-71,36,-41,-28,0
472,-880,-70,36,-42,-28,0
472,-882,-70,36,-42,-28,0
470,-881,-69,36,-42,-28,0
469,-882,-69,36,-42,-29,0
470,-882,-69,36,-42,-28,0
470,-881,-70,35,-43,-28,0
470,-882,-71,36,-44,-27,0
473,-882,-71,37,-45,-27,0
474,-880,-71,37,-46,-27,0
475,-881,-70,37,-47,-27,0
477,-881,-69,38,-47,-27,0
476,-880,-70,39,-46,-28,0
476,-880,-70,39,-45,-29,0
475,-880,-72,39,-43,-29,0
475,-880,-71,39,-41,-29,0
474,-880,-70,38,-40,-29,0
473,-881,-71,37,-39,-29,0
473,-880,-72,37,-38,-28,0
473,-880,-72,36,-37,-28,0
474,-881,-71,36,-37,-28,0
474,-880,-70,36,-37,-27,0
474,-879,-69,36,-37,-27,0
472,-880,-71,36,-38,-28,0
472,-882,-70,37,-39,-28,0
474,-881,-70,37,-40,-28,0
473,-880,-71,37,-40,-28,0
474,-880,-71,37,-40,-28,0
473,-881,-71,36,-40,-28,0
475,-880,-71,37,-39,-28,0
476,-881,-71,37,-39,-28,0
476,-879,-70,37,-38,-28,0
475,-879,-70,37,-38,-28,0
475,-880,-70,38,-36,-28,0
475,-881,-72,38,-36,-28,0
475,-880,-72,38,-36,-28,0
474,-880,-71,37,-35,-28,0
473,-879,-72,37,-34,-28,0
470,-879,-71,37,-34,-29,0
470,-879,-71,36,-35,-29,0
470,-879,-71,36,-35,-29,0
473,-880,-70,36,-36,-29,0
474,-882,-70,37,-38,-29,0
475,-883,-70,37,-39,-30,0
475,-883,-70,37,-39,-30,0
474,-882,-70,37,-38,-31,0
473,-882,-69,35,-36,-30,0
473,-882,-70,34,-35,-29,0
472,-880,-69,34,-35,-30,0
472,-879,-69,34,-36,-30,0
473,-880,-71,34,-37,-29,0
474,-877,-70,34,-37,-28,0
476,-877,-69,34,-38,-28,0
475,-880,-71,35,-38,-30,0
472,-881,-69,37,-38,-30,0
472,-881,-66,37,-38,-31,0
473,-882,-66,38,-39,-31,0
473,-880,-65,38,-39,-31,0
473,-880,-66,39,-38,-31,0
473,-880,-66,39,-38,-31,0
473,-882,-68,39,-38,-31,0
473,-884,-66,40,-39,-31,0
475,-884,-67,40,-39,-31,0
474,-884,-67,39,-38,-30,0
472,-883,-67,39,-38,-30,0
470,-881,-66,39,-37,-29,0
471,-879,-65,38,-38,-30,0
473,-879,-64,37,-39,-29,0
475,-881,-65,37,-39,-29,0
475,-879,-64,31,-23,-26,0
475,-879,-64,32,-23,-27,0
475,-880,-64,33,-24,-27,0
475,-880,-64,33,-26,-27,0
473,-880,-62,33,-26,-27,0
474,-881,-61,33,-26,-27,0
475,-880,-62,32,-27,-26,0
475,-880,-63,32,-28,-26,0
475,-882,-63,33,-29,-27,0
475,-881,-63,34,-30,-27,0
475,-880,-62,34,-30,-27,0
474,-880,-63,34,-30,-28,0
475,-881,-63,35,-29,-28,0
475,-881,-62,34,-29,-29,0
474,-881,-62,35,-29,-29,0
474,-880,-62,36,-30,-28,0
473,-880,-62,35,-32,-28,0
474,-881,-62,36,-33,-28,0
474,-881,-63,36,-35,-28,0
475,-881,-63,36,-35,-28,0
475,-880,-62,36,-36,-28,0
475,-881,-61,36,-36,-28,0
474,-880,-61,36,-36,-28,0
474,-880,-61,37,-36,-28,0
474,-880,-61,37,-36,-28,0
476,-881,-60,37,-36,-29,0
478,-882,-59,36,-35,-28,0
478,-883,-60,35,-33,-28,0
476,-883,-61,36,-32,-28,0
474,-881,-61,36,-32,-29,0
475,-881,-59,35,-33,-29,0
475,-880,-61,35,-33,-29,0
477,-881,-58,36,-33,-29,0
477,-881,-58,35,-33,-28,0
476,-881,-59,34,-32,-27,0
475,-881,-58,34,-31,-27,0
475,-881,-58,34,-31,-26,0
475,-881,-59,34,-30,-26,0
475,-879,-59,34,-29,-26,0
473,-880,-58,35,-30,-27,0
473,-879,-59,35,-31,-27,0
472,-880,-58,35,-33,-27,0
474,-881,-57,36,-33,-26,0
474,-881,-57,37,-34,-26,0
476,-882,-57,37,-34,-26,0
475,-882,-57,37,-35,-28,0
476,-883,-58,38,-34,-27,0
475,-882,-59,38,-34,-28,0
474,-881,-61,39,-34,-28,0
474,-881,-60,39,-36,-27,0
475,-880,-59,38,-37,-27,0
474,-880,-59,38,-38,-27,0
475,-880,-59,37,-37,-26,0
475,-880,-59,37,-36,-26,0
476,-878,-59,37,-36,-26,0
477,-878,-60,37,-35,-27,0
477,-879,-61,37,-35,-27,0
477,-878,-60,37,-35,-27,0
476,-879,-59,36,-35,-27,0
476,-879,-61,36,-34,-28,0
476,-879,-61,36,-35,-27,0
475,-880,-59,35,-35,-28,0
476,-880,-58,35,-34,-28,0
476,-880,-58,34,-33,-27,0
476,-880,-58,34,-33,-27,0
476,-880,-57,34,-32,-27,0
476,-881,-58,34,-31,-27,0
475,-882,-58,33,-31,-27,0
475,-882,-57,33,-30,-27,0
475,-881,-57,33,-32,-26,0
475,-880,-57,33,-32,-26,0
474,-881,-56,33,-33,-27,0
475,-881,-54,33,-33,-27,0
475,-880,-55,33,-33,-27,0
475,-880,-55,33,-32,-27,0
475,-881,-55,33,-32,-28,0
474,-881,-56,33,-32,-28,0
472,-884,-53,32,-32,-28,0
469,-882,-52,31,-33,-30,0
472,-879,-55,29,-33,-29,0
478,-876,-58,28,-32,-25,0
478,-878,-60,30,-32,-26,0
474,-881,-59,32,-35,-28,0
474,-881,-57,33,-37,-28,0
474,-883,-57,33,-37,-28,0
476,-883,-55,33,-37,-28,0
477,-882,-52,33,-35,-28,0
477,-880,-53,33,-32,-27,0
477,-881,-54,33,-30,-28,0
475,-881,-56,33,-29,-28,0
474,-880,-56,33,-31,-29,0
473,-880,-55,34,-32,-29,0
475,-881,-55,34,-33,-28,0
474,-882,-53,33,-32,-28,0
475,-882,-53,34,-32,-28,0
475,-880,-55,34,-31,-28,0
475,-881,-55,34,-32,-29,0
473,-881,-55,34,-32,-28,0
471,-881,-55,35,-34,-29,0
470,-881,-54,35,-35,-29,0
470,-881,-54,35,-35,-29,0
474,-881,-54,35,-35,-29,0
475,-882,-54,36,-37,-29,0
475,-882,-53,35,-37,-29,0
477,-883,-53,35,-37,-29,0
478,-883,-54,35,-36,-29,0
476,-882,-55,36,-36,-30,0
475,-882,-56,35,-35,-30,0
475,-880,-55,34,-36,-31,0
477,-880,-56,34,-36,-30,0
477,-880,-55,34,-37,-30,0
478,-880,-56,34,-37,-29,0
477,-879,-56,33,-36,-29,0
475,-880,-55,34,-34,-29,0
474,-880,-53,33,-34,-29,0
473,-881,-53,32,-35,-28,0
473,-880,-53,32,-36,-28,0
472,-881,-52,33,-37,-29,0
473,-881,-52,34,-37,-30,0
474,-882,-52,35,-39,-30,0
475,-882,-53,35,-39,-31,0
475,-883,-52,36,-39,-30,0
475,-884,-53,36,-40,-31,0
475,-884,-53,37,-40,-31,0
476,-884,-53,37,-40,-31,0
475,-883,-53,37,-40,-31,0
474,-881,-53,37,-40,-31,0
475,-880,-53,37,-41,-31,0
478,-880,-52,37,-42,-32,0
477,-881,-52,37,-42,-32,0
476,-881,-53,37,-42,-31,0
478,-881,-54,37,-42,-31,0
477,-880,-54,37,-40,-32,0
477,-879,-53,36,-40,-32,0
478,-878,-56,36,-42,-32,0
477,-877,-55,36,-43,-32,0
477,-878,-53,37,-44,-32,0
477,-878,-53,37,-44,-32,0
478,-880,-53,35,-43,-32,0
478,-881,-51,34,-42,-31,0
478,-881,-54,32,-42,-31,0
479,-882,-54,32,-43,-31,0
479,-880,-53,32,-42,-30,0
479,-879,-53,31,-42,-30,0
477,-877,-54,30,-41,-30,0
476,-878,-54,30,-41,-30,0
478,-879,-54,31,-40,-30,0
481,-880,-53,31,-40,-29,0
484,-881,-53,30,-41,-30,0
482,-880,-53,31,-40,-31,0
481,-880,-54,31,-39,-31,0
480,-879,-52,32,-37,-33,0
480,-878,-53,31,-34,-33,0
480,-877,-56,31,-33,-32,0
482,-878,-56,31,-32,-31,0
482,-880,-56,30,-33,-31,0
482,-880,-54,30,-32,-30,0
482,-880,-54,30,-32,-30,0
480,-880,-53,30,-33,-30,0
480,-879,-52,28,-32,-29,0
478,-879,-53,28,-30,-29,0
478,-879,-53,29,-29,-30,0
476,-879,-53,29,-29,-30,0
477,-880,-54,30,-32,-31,0
478,-880,-54,30,-33,-31,0
477,-881,-54,30,-35,-31,0
477,-880,-54,30,-37,-31,0
480,-880,-52,31,-37,-30,0
481,-881,-53,31,-37,-30,0
480,-880,-54,31,-36,-30,0
479,-880,-56,31,-36,-31,0
478,-879,-56,32,-36,-31,0
480,-879,-56,31,-37,-30,0
480,-879,-55,30,-37,-30,0
481,-879,-55,30,-36,-29,0
481,-879,-56,31,-35,-30,0
482,-878,-57,32,-34,-30,0
482,-878,-57,32,-33,-30,0
481,-878,-56,33,-33,-30,0
483,-878,-57,33,-33,-31,0
482,-878,-55,34,-35,-31,0
479,-879,-56,34,-35,-31,0
479,-879,-55,35,-36,-32,0
477,-879,-55,35,-36,-32,0
479,-879,-54,35,-37,-31,0
480,-879,-55,35,-37,-31,0
480,-878,-56,35,-38,-30,0
481,-878,-55,34,-37,-30,0
482,-878,-54,34,-37,-30,0
482,-878,-55,33,-37,-30,0
481,-878,-54,33,-37,-30,0
482,-879,-53,32,-37,-30,0
480,-878,-53,32,-37,-30,0
480,-877,-56,32,-36,-30,0
479,-878,-58,32,-34,-30,0
482,-879,-56,33,-34,-30,0
483,-879,-56,33,-35,-30,0
483,-879,-56,33,-36,-29,0
483,-880,-55,32,-36,-29,0
483,-878,-55,32,-36,-29,0
482,-878,-56,33,-35,-30,0
482,-878,-55,34,-34,-30,0
482,-878,-55,35,-32,-30,0
481,-878,-54,36,-30,-30,0
480,-877,-57,35,-30,-30,0
480,-878,-59,36,-31,-30,0
480,-877,-57,36,-32,-30,0
482,-879,-54,36,-33,-30,0
481,-879,-55,35,-33,-30,0
481,-879,-55,35,-31,-30,0
481,-879,-57,36,-30,-31,0
480,-881,-59,37,-29,-32,0
480,-879,-58,37,-29,-33,0
480,-879,-57,37,-30,-33,0
479,-879,-55,37,-30,-32,0
478,-879,-54,35,-28,-31,0
479,-879,-56,34,-27,-30,0
479,-879,-56,34,-26,-29,0
479,-879,-56,34,-26,-29,0
480,-881,-57,33,-27,-29,0
481,-881,-56,35,-28,-29,0
480,-880,-54,36,-28,-30,0
480,-880,-53,38,-27,-30,0
480,-880,-53,39,-26,-32,0
479,-879,-54,41,-26,-32,0
479,-879,-54,43,-26,-33,0
480,-880,-55,44,-27,-33,0
482,-882,-53,46,-29,-34,0
482,-882,-51,47,-29,-34,0
481,-881,-52,49,-29,-35,0
480,-880,-51,49,-28,-35,0
482,-879,-52,49,-28,-35,0
483,-878,-54,49,-26,-35,0
483,-878,-55,50,-26,-34,0
484,-878,-55,49,-26,-34,0
484,-878,-54,49,-26,-33,0
483,-877,-52,49,-27,-34,0
483,-877,-52,47,-28,-34,0
483,-878,-49,47,-28,-34,0
481,-879,-49,46,-28,-34,0
482,-879,-48,45,-28,-33,0
483,-878,-48,44,-30,-33,0
485,-878,-50,41,-34,-32,0
486,-878,-52,37,-40,-30,0
485,-880,-54,34,-45,-31,0
486,-881,-51,32,-48,-31,0
486,-878,-44,30,-52,-30,0
488,-881,-42,30,-54,-29,0
490,-882,-37,33,-52,-29,0
491,-883,-35,35,-46,-28,0
489,-882,-37,36,-37,-27,0
484,-880,-43,37,-24,-26,0
481,-879,-50,35,-14,-25,0
476,-878,-58,32,-9,-25,0
475,-875,-59,30,-9,-23,0
481,-874,-58,29,-14,-21,0
483,-876,-55,49,-10,-33,0
482,-877,-54,50,-10,-33,0
485,-877,-49,49,-16,-32,0
483,-879,-46,47,-19,-29,0
483,-880,-45,47,-15,-28,0
487,-879,-46,47,-8,-27,0
489,-878,-48,48,-4,-28,0
488,-877,-50,51,-5,-28,0
487,-876,-51,53,-7,-29,0
490,-874,-51,54,-9,-31,0
493,-874,-46,55,-11,-31,0
490,-875,-45,53,-10,-30,0
489,-874,-43,51,-6,-31,0
492,-874,-42,50,-5,-30,0
492,-874,-42,51,-4,-29,0
490,-873,-43,51,-4,-29,0
492,-870,-39,53,-4,-30,0
492,-871,-36,55,-5,-30,0
492,-873,-41,51,-6,-29,0
491,-872,-33,48,-7,-29,0
492,-869,-28,54,-10,-30,0
492,-874,-25,55,-8,-31,0
499,-877,-19,56,-4,-32,0
499,-879,-17,61,-4,-31,0
500,-882,-11,66,-4,-32,0
503,-883,-4,71,-6,-34,0
501,-883,0,71,-7,-35,0
498,-882,-2,71,-3,-36,0
504,-882,11,79,3,-38,0
508,-885,22,89,7,-40,0
507,-886,28,94,10,-39,0
503,-887,36,95,16,-35,0
492,-887,28,85,26,-28,0
483,-883,14,72,39,-21,0
483,-883,14,65,49,-16,0
478,-879,7,65,49,-16,0
480,-876,3,63,52,-14,0
486,-876,4,62,49,-14,0
491,-876,7,59,43,-13,0
493,-875,12,58,41,-13,0
491,-873,11,56,42,-12,0
491,-872,7,54,47,-11,0
489,-871,0,49,56,-9,0
490,-872,-10,44,61,-6,0
494,-871,-13,38,61,-5,0
500,-869,-8,32,56,-5,0
500,-869,-8,29,47,-7,0
500,-870,-11,29,44,-9,0
503,-869,-12,32,48,-11,0
503,-869,-10,33,55,-12,0
501,-867,-8,33,60,-14,0
498,-866,-7,34,60,-15,0
495,-867,-7,34,59,-17,0
497,-870,-2,32,57,-18,0
497,-870,-2,30,53,-18,0
494,-873,0,30,53,-18,0
488,-875,0,33,52,-19,0
486,-876,-2,34,60,-19,0
488,-877,-1,31,65,-16,0
490,-875,0,29,65,-13,0
490,-871,1,29,60,-14,0
488,-870,5,31,54,-18,0
484,-870,4,34,54,-19,0
481,-873,-1,31,59,-20,0
480,-876,-3,28,64,-18,0
485,-877,-1,29,65,-16,0
489,-878,3,29,61,-16,0
488,-875,6,28,58,-16,0
488,-875,9,33,56,-17,0
486,-876,8,35,57,-19,0
483,-878,5,31,60,-18,0
480,-880,6,29,61,-17,0
480,-880,10,25,61,-16,0
480,-880,10,20,61,-15,0
480,-880,10,19,59,-16,0
481,-880,12,19,59,-16,0
483,-882,16,18,56,-16,0
486,-882,19,15,52,-15,0
487,-882,20,15,45,-14,0
485,-881,23,21,38,-16,0
481,-883,21,26,36,-18,0
477,-884,18,25,38,-18,0
477,-884,22,22,40,-16,0
479,-882,31,24,36,-14,0
474,-880,29,28,34,-16,0
474,-882,30,29,36,-17,0
475,-881,31,30,39,-15,0
476,-883,28,30,38,-14,0
475,-882,24,31,36,-14,0
478,-883,28,33,32,-15,0
477,-881,33,38,24,-17,0
474,-878,33,40,20,-18,0
468,-876,32,39,19,-19,0
462,-875,27,36,21,-18,0
462,-875,27,36,21,-17,0
462,-876,22,36,21,-17,0
463,-881,23,33,16,-17,0
467,-885,27,33,4,-17,0
470,-886,30,35,-5,-18,0
471,-885,27,35,-9,-20,0
473,-882,34,33,-7,-21,0
472,-877,32,32,-9,-22,0
470,-876,26,27,-10,-22,0
468,-880,23,25,-9,-22,0
471,-881,25,24,-12,-22,0
472,-883,29,24,-19,-21,0
472,-882,32,26,-27,-21,0
469,-880,29,30,-30,-21,0
472,-880,27,34,-29,-21,0
473,-881,26,35,-29,-23,0
470,-881,24,35,-32,-24,0
472,-881,27,35,-35,-24,0
474,-883,33,33,-40,-23,0
472,-882,32,34,-45,-23,0
472,-882,32,38,-49,-25,0
472,-880,35,38,-49,-25,0
470,-882,34,42,-50,-26,0
469,-882,30,41,-50,-27,0
466,-882,28,36,-49,-26,0
468,-882,29,32,-50,-25,0
474,-884,34,29,-54,-22,0
481,-882,38,32,-61,-23,0
480,-883,38,38,-66,-27,0
473,-883,30,40,-63,-29,0
472,-886,26,36,-59,-28,0
473,-883,29,29,-60,-26,0
473,-882,30,30,-66,-26,0
478,-884,35,33,-68,-27,0
480,-877,11,3,-59,-23,0
479,-879,12,0,-61,-22,0
479,-879,13,-3,-60,-20,0
480,-879,14,-4,-57,-19,0
481,-879,13,-4,-55,-19,0
485,-879,12,-6,-53,-20,0
485,-880,12,-7,-54,-20,0
481,-880,13,-8,-56,-21,0
474,-880,12,-11,-54,-21,0
473,-878,11,-13,-49,-20,0
478,-879,16,-13,-48,-19,0
479,-878,15,-15,-52,-18,0
480,-879,15,-15,-55,-18,0
482,-881,17,-15,-55,-18,0
479,-882,10,-15,-54,-18,0
478,-881,9,-15,-49,-19,0
477,-880,12,-17,-47,-19,0
479,-877,13,-20,-50,-18,0
479,-877,10,-21,-54,-19,0
479,-877,8,-21,-54,-20,0
477,-878,8,-21,-54,-20,0
473,-882,8,-23,-50,-19,0
473,-882,6,-28,-46,-17,0
475,-881,7,-32,-45,-14,0
476,-880,8,-35,-48,-14,0
475,-881,11,-33,-54,-16,0
471,-883,14,-33,-55,-18,0
470,-882,13,-33,-51,-18,0
469,-882,8,-31,-52,-18,0
467,-882,7,-33,-56,-17,0
466,-881,5,-36,-59,-16,0
466,-878,8,-37,-63,-15,0
465,-885,4,-35,-66,-14,0
468,-886,3,-39,-61,-15,0
472,-885,6,-43,-59,-12,0
468,-884,2,-45,-61,-12,0
465,-882,-4,-44,-62,-14,0
469,-881,-2,-43,-63,-14,0
471,-887,-6,-43,-67,-13,0
470,-887,-9,-47,-65,-11,0
470,-887,-9,-47,-65,-11,0
466,-887,-16,-53,-61,-8,0
469,-888,-21,-57,-57,-4,0
471,-891,-26,-61,-57,-1,0
473,-894,-33,-64,-58,1,0
478,-897,-37,-68,-61,3,0
477,-900,-47,-72,-64,3,0
474,-898,-58,-78,-65,4,0
469,-891,-71,-84,-65,5,0
465,-883,-85,-92,-66,5,0
465,-882,-98,-99,-68,6,0
465,-881,-109,-106,-71,4,0
467,-877,-118,-110,-78,1,0
471,-873,-121,-108,-87,-1,0
473,-870,-122,-103,-94,-6,0
477,-872,-124,-95,-95,-9,0
476,-873,-127,-89,-92,-12,0
473,-867,-133,-84,-87,-15,0
467,-862,-137,-77,-84,-17,0
470,-859,-137,-69,-86,-21,0
470,-859,-137,-69,-86,-21,0
473,-858,-133,-64,-94,-24,0
471,-859,-133,-59,-106,-29,0
470,-860,-131,-50,-121,-36,0
470,-865,-127,-38,-132,-42,0
468,-869,-120,-27,-135,-47,0
465,-874,-117,-20,-133,-49,0
463,-880,-116,-17,-129,-49,0
463,-881,-113,-13,-128,-48,0
462,-884,-111,-7,-127,-46,0
467,-889,-108,0,-129,-46,0
471,-891,-104,10,-132,-49,0
473,-890,-101,19,-133,-52,0
475,-890,-97,27,-130,-55,0
471,-889,-98,33,-129,-57,0
467,-887,-98,37,-129,-59,0
466,-887,-98,36,-130,-59,0
462,-887,-100,34,-136,-58,0
461,-885,-101,28,-142,-57,0
459,-877,-105,19,-147,-55,0
459,-877,-105,19,-147,-54,0
460,-870,-103,11,-152,-54,0
462,-868,-102,9,-161,-54,0
463,-868,-101,10,-172,-57,0
465,-873,-99,10,-185,-60,0
464,-880,-95,9,-196,-63,0
464,-877,-91,4,-202,-64,0
464,-879,-85,1,-205,-62,0
470,-883,-77,3,-204,-61,0
477,-887,-70,3,-198,-57,0
478,-891,-71,-4,-188,-51,0
482,-894,-69,-12,-172,-44,0
485,-899,-70,-16,-156,-41,0
485,-903,-70,-13,-142,-39,0
486,-905,-72,-11,-128,-36,0
486,-902,-70,-3,-114,-34,0
480,-898,-67,11,-100,-35,0
475,-896,-70,23,-87,-35,0
472,-893,-75,26,-74,-34,0
467,-889,-80,28,-67,-33,0
467,-889,-80,28,-67,-32,0
464,-888,-83,30,-67,-32,0
462,-885,-84,31,-74,-30,0
458,-885,-82,30,-83,-27,0
458,-886,-82,29,-90,-23,0
457,-886,-81,24,-93,-18,0
456,-881,-83,17,-91,-11,0
455,-877,-87,11,-87,-6,0
456,-874,-92,8,-83,-3,0
460,-874,-95,7,-82,-2,0
464,-877,-98,8,-83,-1,0
468,-882,-98,9,-85,-2,0
470,-884,-100,9,-85,-2,0
470,-884,-102,9,-85,-2,0
470,-885,-103,9,-82,-1,0
469,-886,-104,10,-79,-2,0
466,-888,-108,9,-74,-2,0
463,-888,-113,8,-69,0,0
461,-890,-118,5,-65,1,0
460,-887,-122,4,-63,2,0
460,-887,-122,4,-62,3,0
461,-886,-123,4,-62,3,0
462,-886,-126,4,-63,3,0
463,-887,-127,4,-62,3,0
464,-887,-129,1,-59,5,0
461,-884,-131,-2,-55,7,0
456,-883,-132,-3,-54,8,0
453,-880,-131,0,-57,7,0
448,-887,-145,21,-40,-16,0
448,-887,-142,22,-40,-17,0
447,-884,-141,23,-39,-18,0
444,-883,-143,24,-36,-19,0
442,-884,-144,26,-34,-20,0
445,-882,-146,28,-34,-22,0
448,-890,-149,29,-34,-23,0
448,-890,-149,28,-34,-23,0
446,-887,-147,28,-34,-23,0
448,-885,-145,27,-31,-22,0
450,-884,-143,25,-29,-23,0
450,-885,-145,24,-26,-23,0
447,-884,-145,23,-24,-24,0
446,-884,-147,24,-23,-24,0
443,-885,-147,25,-23,-25,0
443,-887,-144,25,-22,-24,0
443,-887,-143,24,-21,-23,0
444,-887,-141,23,-18,-22,0
445,-888,-136,24,-17,-22,0
445,-887,-135,25,-16,-23,0
444,-887,-136,27,-15,-24,0
443,-886,-137,27,-14,-25,0
442,-885,-141,29,-14,-26,0
443,-884,-144,29,-15,-26,0
445,-884,-142,29,-17,-27,0
447,-886,-143,29,-19,-28,0
449,-886,-141,29,-20,-28,0
449,-886,-139,30,-19,-29,0
449,-886,-139,30,-19,-29,0
448,-884,-139,29,-16,-29,0
448,-883,-139,29,-14,-28,0
445,-883,-138,30,-14,-28,0
446,-884,-138,30,-15,-28,0
448,-885,-138,32,-16,-28,0
447,-887,-136,33,-17,-29,0
448,-886,-137,33,-16,-30,0
448,-884,-137,32,-15,-29,0
450,-883,-137,32,-14,-29,0
449,-884,-137,32,-14,-29,0
449,-884,-138,31,-13,-29,0
447,-884,-138,31,-12,-30,0
446,-883,-137,31,-11,-30,0
446,-883,-138,31,-11,-30,0
445,-885,-136,31,-12,-30,0
445,-885,-135,30,-13,-29,0
445,-884,-135,29,-12,-29,0
447,-886,-134,30,-12,-29,0
447,-886,-134,31,-13,-30,0
447,-886,-134,31,-13,-30,0
447,-885,-135,32,-13,-31,0
446,-885,-136,33,-14,-31,0
446,-885,-136,35,-15,-32,0
446,-886,-137,36,-16,-32,0
445,-885,-138,36,-17,-32,0
447,-884,-137,36,-17,-32,0
447,-885,-135,36,-17,-32,0
447,-885,-134,38,-19,-32,0
447,-885,-131,39,-19,-33,0
445,-884,-133,40,-18,-33,0
446,-883,-133,41,-18,-34,0
446,-884,-131,43,-18,-34,0
446,-885,-129,46,-20,-34,0
448,-885,-128,47,-20,-35,0
447,-885,-128,47,-21,-35,0
447,-885,-127,48,-21,-35,0
446,-884,-128,49,-22,-35,0
446,-885,-127,51,-22,-36,0
446,-885,-126,53,-24,-36,0
445,-885,-126,53,-24,-36,0
446,-884,-125,54,-26,-36,0
447,-885,-124,54,-27,-36,0
448,-887,-124,55,-29,-36,0
450,-887,-122,56,-32,-36,0
450,-888,-121,56,-35,-37,0
451,-888,-120,56,-35,-37,0
451,-886,-121,57,-37,-37,0
450,-885,-120,58,-40,-38,0
449,-886,-120,60,-44,-39,0
450,-888,-119,62,-47,-39,0
449,-888,-118,62,-49,-38,0
451,-887,-119,61,-51,-37,0
454,-887,-120,59,-52,-36,0
454,-885,-122,59,-54,-36,0
456,-885,-122,60,-57,-37,0
459,-883,-120,60,-60,-39,0
459,-883,-121,60,-60,-40,0
460,-883,-119,62,-61,-41,0
460,-883,-119,62,-61,-40,0
458,-883,-119,62,-61,-40,0
457,-883,-122,60,-60,-39,0
457,-884,-124,59,-59,-37,0
457,-883,-124,58,-59,-35,0
458,-882,-121,57,-60,-35,0
458,-882,-118,59,-61,-35,0
457,-882,-113,61,-62,-36,0
457,-882,-112,63,-62,-36,0
455,-882,-113,64,-62,-36,0
454,-881,-114,65,-62,-35,0
453,-881,-115,65,-63,-34,0
455,-882,-116,65,-64,-34,0
455,-882,-116,65,-66,-33,0
458,-882,-113,65,-68,-33,0
458,-882,-113,66,-69,-33,0
458,-882,-114,66,-70,-33,0
458,-881,-113,67,-71,-32,0
459,-881,-113,68,-71,-32,0
460,-882,-115,68,-71,-32,0
460,-882,-114,68,-71,-31,0
460,-883,-114,68,-71,-31,0
459,-883,-115,68,-72,-30,0
460,-883,-113,69,-72,-29,0
459,-883,-113,70,-71,-29,0
461,-883,-112,70,-70,-29,0
461,-883,-113,69,-69,-29,0
461,-883,-114,69,-67,-28,0
462,-883,-116,69,-67,-28,0
462,-883,-115,68,-67,-28,0
461,-883,-116,66,-68,-27,0
460,-882,-116,64,-68,-26,0
459,-881,-116,64,-69,-26,0
460,-882,-114,62,-69,-25,0
459,-883,-114,61,-69,-25,0
460,-882,-115,60,-69,-24,0
461,-883,-116,59,-68,-23,0
462,-883,-115,58,-67,-23,0
462,-882,-116,57,-66,-23,0
461,-880,-116,56,-64,-23,0
461,-880,-117,57,-62,-23,0
459,-886,-94,77,-31,-15,0
460,-886,-96,76,-30,-14,0
461,-888,-96,77,-30,-13,0
461,-887,-96,78,-30,-13,0
460,-884,-93,78,-30,-13,0
463,-886,-91,78,-29,-13,0
464,-886,-92,79,-27,-12,0
463,-886,-90,79,-26,-12,0
463,-887,-92,78,-24,-11,0
462,-886,-94,78,-22,-10,0
462,-886,-94,76,-22,-9,0
459,-886,-94,73,-21,-8,0
457,-886,-98,71,-20,-7,0
456,-885,-98,69,-20,-7,0
455,-884,-100,66,-21,-6,0
456,-883,-102,64,-23,-6,0
455,-883,-100,63,-25,-5,0
455,-882,-99,60,-26,-4,0
455,-882,-99,58,-26,-3,0
458,-885,-97,58,-26,-3,0
458,-886,-96,57,-25,-2,0
460,-887,-96,57,-24,-1,0
459,-887,-96,56,-23,-1,0
460,-887,-96,57,-21,0,0
461,-886,-94,58,-19,0,0
461,-885,-93,58,-16,1,0
463,-883,-91,55,-15,2,0
467,-883,-89,50,-15,6,0
469,-882,-85,41,-19,10,0
473,-887,-76,36,-24,12,0
476,-893,-66,38,-23,14,0
472,-900,-68,41,-17,15,0
460,-900,-86,42,-3,15,0
446,-892,-105,44,11,14,0
441,-882,-111,47,18,16,0
444,-879,-111,50,11,18,0
446,-883,-115,55,-6,19,0
444,-888,-118,61,-24,17,0
444,-888,-118,64,-39,13,0
438,-890,-114,64,-39,13,0
432,-892,-113,63,-50,11,0
424,-887,-114,56,-53,12,0
423,-877,-119,48,-52,14,0
429,-864,-118,46,-54,12,0
442,-865,-106,57,-72,5,0
443,-881,-105,67,-92,-3,0
441,-896,-101,63,-96,-8,0
439,-902,-97,51,-84,-3,0
435,-900,-98,36,-62,7,0
438,-896,-108,21,-42,20,0
446,-890,-122,7,-34,29,0
456,-886,-125,4,-44,31,0
461,-884,-116,10,-69,27,0
457,-890,-113,18,-87,21,0
453,-896,-108,23,-93,17,0
453,-901,-101,32,-91,15,0
458,-904,-101,46,-81,16,0
462,-906,-106,54,-69,19,0
462,-906,-106,64,-58,17,0
457,-902,-123,64,-58,17,0
447,-895,-130,88,-52,9,0
438,-892,-131,115,-49,-3,0
431,-888,-119,135,-48,-14,0
429,-897,-107,163,-45,-22,0
425,-903,-110,197,-41,-32,0
419,-895,-110,213,-29,-39,0
406,-878,-105,211,-14,-42,0
389,-856,-104,205,0,-41,0
381,-836,-106,211,7,-42,0
384,-823,-94,217,-2,-49,0
396,-829,-72,220,-17,-61,0
410,-855,-51,215,-36,-78,0
406,-887,-36,208,-64,-95,0
395,-929,-20,205,-93,-114,0
374,-967,-13,198,-114,-125,0
359,-993,-14,188,-138,-121,0
363,-1001,-18,179,-164,-103,0
365,-998,-1,162,-176,-69,0
365,-998,-1,149,-183,-32,0
381,-997,16,149,-183,-32,0
395,-987,26,141,-182,2,0
403,-976,33,137,-164,29,0
405,-972,24,150,-138,42,0
412,-960,33,171,-115,36,0
416,-959,25,187,-107,23,0
408,-954,17,190,-94,8,0
401,-950,19,191,-79,-3,0
392,-945,25,186,-60,-4,0
380,-940,17,176,-32,2,0
369,-931,6,167,-9,13,0
365,-922,11,158,2,23,0
368,-910,15,141,1,36,0
371,-902,17,119,-7,48,0
383,-891,17,102,-18,54,0
396,-883,11,91,-29,51,0
410,-880,9,89,-44,39,0
417,-879,15,89,-65,20,0
418,-884,17,82,-81,1,0
418,-884,17,71,-86,-9,0
420,-887,25,71,-86,-9,0
412,-891,16,57,-78,-12,0
404,-894,5,47,-64,-14,0
408,-898,6,42,-61,-23,0
413,-904,7,39,-74,-33,0
415,-913,14,41,-99,-40,0
409,-924,21,41,-122,-43,0
402,-935,27,38,-132,-38,0
394,-942,25,38,-129,-31,0
392,-946,20,41,-118,-26,0
396,-948,19,47,-112,-18,0
402,-944,10,49,-115,-10,0
412,-941,6,55,-127,-3,0
424,-937,9,67,-142,-1,0
431,-937,11,80,-147,-2,0
428,-932,1,97,-131,-4,0
428,-929,3,109,-103,-4,0
426,-922,-1,108,-79,-1,0
416,-913,-12,102,-68,3,0
416,-913,-12,99,-71,5,0
410,-902,-16,99,-71,5,0
404,-900,-11,99,-83,3,0
400,-905,-7,98,-92,0,0
396,-906,-16,96,-93,-2,0
396,-908,-9,89,-92,-1,0
396,-911,-13,74,-90,1,0
399,-917,-12,58,-92,5,0
401,-922,-9,47,-96,7,0
400,-923,-5,43,-93,9,0
412,-903,-17,23,66,4,0
417,-902,-7,23,69,-1,0
418,-907,0,19,64,-4,0
416,-913,14,15,62,-6,0
414,-917,20,9,73,-6,0
407,-917,17,4,98,-4,0
405,-914,9,-2,129,-2,0
408,-913,12,-14,147,0,0
408,-913,10,-24,145,0,0
408,-915,10,-24,145,0,0
405,-916,13,-28,132,-2,0
402,-917,14,-28,122,-8,0
395,-919,8,-23,126,-15,0
393,-919,0,-23,144,-20,0
396,-925,0,-32,153,-18,0
397,-924,-2,-42,149,-14,0
395,-920,0,-48,143,-12,0
402,-916,11,-56,142,-13,0
408,-919,11,-61,144,-14,0
403,-923,4,-63,156,-17,0
405,-919,-4,-62,172,-23,0
409,-917,-10,-64,182,-25,0
413,-915,-7,-71,190,-26,0
414,-913,0,-74,193,-27,0
411,-916,4,-73,194,-29,0
403,-918,8,-73,202,-31,0
396,-917,7,-76,214,-31,0
388,-916,2,-86,228,-29,0
388,-916,7,-96,234,-30,0
387,-920,7,-96,234,-30,0
384,-926,6,-100,229,-32,0
380,-932,3,-101,222,-34,0
386,-931,2,-98,220,-34,0
394,-934,9,-101,225,-31,0
391,-936,6,-107,230,-29,0
383,-936,0,-111,238,-30,0
380,-932,3,-113,249,-30,0
376,-931,5,-116,257,-28,0
380,-927,4,-120,264,-25,0
383,-925,5,-126,269,-21,0
384,-923,3,-132,273,-17,0
384,-920,3,-138,277,-16,0
387,-916,-13,-140,276,-20,0
393,-919,-19,-145,271,-28,0
391,-918,-16,-151,263,-34,0
378,-917,-19,-158,247,-40,0
382,-918,-18,-167,238,-46,0
387,-929,-11,-174,236,-50,0
387,-929,-11,-175,240,-55,0
389,-927,-11,-175,240,-55,0
388,-926,-16,-178,242,-57,0
385,-925,-16,-188,244,-59,0
380,-929,-9,-197,239,-60,0
373,-931,-9,-198,228,-63,0
365,-932,-8,-198,222,-64,0
358,-934,-4,-194,217,-70,0
356,-935,-8,-178,212,-79,0
353,-941,-13,-156,203,-89,0
354,-940,-9,-140,192,-100,0
354,-942,-4,-131,177,-104,0
353,-947,1,-126,164,-103,0
353,-949,0,-122,153,-98,0
355,-955,7,-116,145,-94,0
345,-956,-7,-106,135,-93,0
339,-945,-23,-94,119,-96,0
343,-945,-22,-82,98,-100,0
349,-935,-20,-74,79,-107,0
355,-937,-19,-65,67,-113,0
355,-937,-22,-60,60,-120,0
361,-938,-22,-60,60,-120,0
368,-940,-17,-55,51,-127,0
368,-943,-12,-48,37,-129,0
357,-950,7,-40,21,-132,0
335,-947,12,-25,13,-137,0
304,-946,-5,-14,5,-143,0
276,-958,-13,-11,-13,-154,0
251,-969,-17,-1,-46,-169,0
248,-977,-22,7,-88,-180,0
246,-996,-31,16,-131,-182,0
245,-1006,-41,25,-165,-178,0
254,-1004,-58,34,-191,-167,0
272,-1004,-73,37,-213,-154,0
306,-993,-71,46,-235,-143,0
346,-974,-78,61,-255,-132,0
395,-953,-94,77,-261,-122,0
432,-936,-117,97,-253,-116,0
455,-923,-129,116,-240,-118,0
462,-915,-130,131,-218,-125,0
462,-915,-125,150,-197,-135,0
459,-910,-125,150,-197,-135,0
450,-911,-117,165,-178,-145,0
434,-896,-102,172,-158,-152,0
426,-879,-90,170,-143,-154,0
422,-864,-86,162,-125,-153,0
424,-857,-83,159,-111,-155,0
430,-849,-77,168,-109,-165,0
434,-850,-68,182,-120,-182,0
430,-849,-57,199,-137,-202,0
424,-862,-48,213,-153,-221,0
418,-874,-36,227,-168,-238,0
410,-891,-28,246,-183,-250,0
406,-905,-23,267,-202,-259,0
405,-908,-20,292,-230,-263,0
406,-905,-14,319,-263,-262,0
416,-910,-11,346,-299,-257,0
428,-904,-9,375,-333,-252,0
436,-902,-15,404,-362,-250,0
444,-901,-15,430,-381,-248,0
444,-901,-19,461,-398,-251,0
456,-899,-19,461,-398,-251,0
463,-892,-22,495,-413,-256,0
474,-889,-26,527,-422,-261,0
478,-883,-24,560,-426,-263,0
486,-874,-30,591,-425,-261,0
495,-864,-30,621,-418,-261,0
503,-851,-27,647,-407,-263,0
509,-827,-23,677,-395,-270,0
506,-829,-21,706,-393,-283,0
501,-821,-18,737,-397,-287,0
516,-801,-16,765,-403,-290,0
545,-785,-10,792,-409,-304,0
567,-772,7,811,-410,-322,0
568,-770,32,816,-400,-327,0
572,-796,57,809,-380,-309,0
608,-824,77,801,-366,-294,0
642,-855,93,818,-379,-291,0
657,-859,120,839,-393,-278,0
660,-882,147,822,-375,-261,0
690,-760,44,-121,-160,0,0
690,-760,44,-129,-137,-15,0
686,-758,44,-129,-137,-15,0
679,-765,46,-135,-114,-29,0
675,-768,48,-144,-93,-41,0
673,-770,52,-155,-71,-49,0
672,-769,54,-168,-50,-55,0
675,-772,56,-181,-27,-59,0
676,-775,60,-193,-2,-62,0
677,-777,65,-205,23,-63,0
678,-782,69,-218,52,-64,0
679,-785,72,-227,81,-65,0
675,-791,75,-231,109,-66,0
671,-793,78,-232,134,-68,0
667,-796,80,-231,156,-70,0
659,-801,78,-227,175,-72,0
655,-803,76,-222,193,-74,0
652,-800,75,-216,212,-72,0
646,-797,72,-213,235,-66,0
658,-789,68,-214,264,-58,0
661,-788,62,-206,287,-61,0
661,-788,62,-199,311,-63,0
654,-788,59,-199,311,-63,0
647,-791,58,-195,333,-62,0
643,-793,58,-193,354,-61,0
641,-795,58,-192,374,-59,0
640,-795,56,-193,394,-58,0
642,-795,53,-196,414,-57,0
646,-798,48,-199,433,-60,0
648,-799,45,-202,450,-65,0
645,-799,43,-203,464,-73,0
639,-797,42,-205,474,-82,0
632,-794,39,-208,483,-90,0
629,-790,41,-214,493,-100,0
628,-786,42,-222,507,-110,0
629,-784,41,-231,521,-120,0
630,-785,41,-240,533,-132,0
630,-785,43,-249,543,-142,0
630,-785,50,-262,549,-150,0
621,-786,54,-272,553,-158,0
608,-787,63,-286,560,-160,0
608,-787,63,-296,563,-162,0
612,-785,77,-296,563,-162,0
611,-785,86,-301,560,-168,0
601,-787,92,-308,550,-174,0
586,-787,94,-313,544,-171,0
582,-786,105,-322,543,-161,0
576,-790,109,-331,544,-152,0
571,-792,116,-334,544,-142,0
566,-792,123,-337,541,-130,0
566,-788,133,-342,539,-118,0
563,-791,141,-352,538,-103,0
564,-797,146,-356,530,-88,0
567,-800,153,-350,513,-77,0
565,-803,162,-344,500,-64,0
560,-811,169,-338,490,-47,0
567,-828,187,-332,482,-28,0
582,-845,198,-322,462,-8,0
591,-856,203,-303,425,10,0
590,-856,207,-285,383,26,0
578,-854,209,-277,345,42,0
578,-854,209,-274,321,56,0
563,-848,201,-274,321,56,0
551,-842,192,-270,314,64,0
543,-834,178,-270,321,66,0
542,-823,170,-271,330,64,0
551,-812,168,-265,333,62,0
563,-805,177,-238,325,59,0
581,-796,192,-181,309,41,0
597,-788,204,-119,296,16,0
597,-793,200,-98,295,3,0
582,-814,184,-135,304,15,0
566,-833,163,-201,309,40,0
556,-854,155,-250,308,66,0
559,-870,155,-255,303,82,0
555,-887,158,-221,298,90,0
555,-900,171,-170,297,89,0
536,-903,192,-126,284,95,0
515,-893,215,-99,246,127,0
510,-892,227,-83,212,170,0
504,-881,224,-55,199,197,0
504,-881,224,-5,210,221,0
506,-857,223,-5,210,221,0
508,-839,226,53,220,242,0
504,-820,237,111,211,261,0
500,-810,259,156,178,275,0
479,-808,296,174,127,287,0
421,-820,311,168,73,310,0
318,-849,293,137,46,346,0
243,-875,239,106,13,397,0
227,-919,157,50,-27,418,0
236,-920,127,10,-103,418,0
301,-880,105,26,-237,386,0
370,-846,132,60,-354,319,0
415,-795,161,77,-448,249,0
458,-736,157,78,-519,178,0
478,-749,170,49,-547,132,0
489,-792,190,10,-561,117,0
485,-863,174,-13,-577,128,0
485,-924,118,-49,-569,166,0
516,-937,41,-124,-524,196,0
516,-937,41,-192,-481,200,0
548,-950,-42,-192,-481,200,0
556,-931,-90,-233,-448,206,0
556,-919,-94,-258,-435,205,0
566,-912,-40,-275,-436,208,0
571,-917,48,-295,-446,203,0
572,-954,109,-308,-465,187,0
537,-989,106,-283,-489,143,0
526,-984,49,-223,-510,71,0
544,-954,5,-151,-542,-4,0
548,-908,-3,-73,-558,-61,0
543,-851,22,-13,-584,-106,0
524,-808,44,39,-621,-140,0
495,-789,36,114,-656,-168,0
454,-798,23,184,-695,-195,0
386,-826,-20,225,-712,-212,0
299,-848,-79,206,-685,-189,0
246,-882,-115,132,-648,-124,0
234,-892,-115,55,-636,-49,0
243,-909,-65,-3,-643,29,0
243,-909,-65,-39,-659,108,0
279,-887,-24,-39,-659,108,0
317,-877,-43,-49,-720,144,0
373,-867,-51,-19,-803,140,0
405,-864,-54,48,-882,106,0
403,-873,-74,122,-925,57,0
402,-881,-65,181,-935,0,0
454,-897,61,150,-312,-44,0
435,-893,41,161,-307,-44,0
424,-895,33,178,-314,-63,0
419,-898,26,191,-331,-78,0
416,-905,12,197,-350,-86,0
422,-913,7,202,-364,-86,0
435,-914,3,198,-360,-80,0
445,-921,1,180,-333,-71,0
443,-930,-13,168,-297,-64,0
434,-934,-18,178,-260,-61,0
425,-930,-24,199,-230,-58,0
422,-931,-38,204,-203,-52,0
427,-928,-59,197,-189,-47,0
427,-922,-80,196,-190,-47,0
428,-914,-98,201,-204,-50,0
427,-907,-111,205,-217,-52,0
425,-899,-119,205,-224,-57,0
428,-900,-129,204,-228,-62,0
436,-906,-134,207,-229,-66,0
442,-917,-138,210,-227,-71,0
442,-917,-138,212,-220,-72,0
446,-925,-141,212,-220,-72,0
447,-928,-140,212,-209,-70,0
444,-923,-143,208,-195,-67,0
445,-913,-144,204,-180,-64,0
450,-905,-146,204,-167,-66,0
452,-898,-142,208,-160,-74,0
445,-890,-136,219,-156,-89,0
431,-888,-130,237,-155,-111,0
423,-890,-125,254,-154,-133,0
421,-897,-123,259,-148,-145,0
425,-914,-125,246,-140,-142,0
432,-922,-146,226,-141,-133,0
421,-897,-139,210,-145,-114,0
420,-902,-118,230,-168,-87,0
425,-910,-111,269,-198,-63,0
425,-916,-106,304,-228,-36,0
431,-918,-111,326,-271,-5,0
445,-924,-106,352,-322,23,0
446,-935,-96,404,-382,37,0
446,-935,-96,481,-458,38,0
446,-951,-102,481,-458,38,0
442,-971,-108,551,-516,36,0
412,-987,-101,595,-529,28,0
392,-1005,-75,614,-499,14,0
390,-986,-43,616,-446,5,0
397,-952,-29,614,-396,5,0
410,-920,0,609,-331,17,0
427,-885,37,600,-268,24,0
431,-860,72,583,-222,17,0
431,-843,99,558,-188,6,0
429,-823,132,544,-159,1,0
424,-823,165,539,-151,0,0
427,-825,203,545,-150,-8,0
432,-835,247,546,-144,-25,0
435,-855,284,548,-146,-62,0
413,-862,301,574,-165,-112,0
400,-866,305,618,-185,-170,0
405,-868,305,662,-200,-226,0
431,-852,289,709,-219,-276,0
431,-852,289,762,-242,-316,0
457,-854,282,762,-242,-316,0
488,-870,290,800,-254,-350,0
515,-881,322,816,-246,-378,0
544,-900,364,797,-213,-390,0
561,-908,400,741,-158,-387,0
564,-903,421,662,-102,-360,0
551,-900,429,574,-65,-313,0
534,-890,422,490,-64,-255,0
515,-867,399,412,-91,-192,0
491,-850,367,340,-131,-127,0
464,-836,334,283,-176,-72,0
440,-824,310,245,-218,-27,0
434,-806,305,209,-241,9,0
437,-791,305,167,-245,42,0
448,-783,316,112,-240,73,0
462,-783,324,41,-225,106,0
469,-786,322,-32,-206,140,0
474,-788,312,-89,-195,167,0
472,-790,297,-122,-188,185,0
472,-790,297,-144,-186,190,0
468,-790,288,-144,-186,190,0
461,-802,267,-166,-171,189,0
460,-807,247,-174,-155,177,0
456,-810,229,-171,-144,156,0
459,-807,213,-169,-132,129,0
470,-803,200,-165,-120,96,0
485,-800,190,-159,-111,59,0
510,-805,183,-146,-106,20,0
542,-813,188,-122,-110,-18,0
573,-832,202,-82,-123,-59,0
592,-855,223,-25,-142,-98,0
601,-873,247,40,-161,-131,0
603,-888,267,100,-173,-156,0
595,-898,276,151,-181,-172,0
583,-899,278,196,-182,-181,0
568,-894,272,235,-176,-182,0
541,-889,267,264,-161,-176,0
512,-878,261,276,-137,-166,0
499,-875,239,280,-109,-142,0
499,-875,239,282,-80,-109,0
489,-867,229,282,-80,-109,0
481,-853,226,282,-49,-75,0
478,-843,219,289,-27,-45,0
487,-839,210,303,-15,-21,0
505,-840,207,310,-2,0,0
527,-852,208,311,8,17,0
542,-860,204,307,8,30,0
547,-862,205,301,4,38,0
553,-857,213,291,-5,43,0
558,-852,224,277,-19,48,0
557,-845,231,259,-46,50,0
552,-837,230,250,-74,43,0
541,-829,225,241,-94,30,0
531,-820,218,230,-104,17,0
525,-815,213,219,-107,7,0
518,-815,196,225,-111,-2,0
506,-814,158,253,-110,-19,0
499,-812,137,316,-97,-52,0
509,-798,128,406,-83,-102,0
509,-798,128,497,-82,-165,0
528,-765,132,497,-82,-165,0
549,-747,177,544,-98,-233,0
556,-727,249,527,-112,-288,0
549,-744,282,461,-124,-327,0
534,-761,262,385,-105,-360,0
521,-777,236,341,-51,-392,0
506,-790,228,303,11,-408,0
547,-774,407,-191,-230,51,0
575,-795,387,-249,-194,87,0
607,-812,369,-274,-163,108,0
637,-815,361,-277,-141,118,0
650,-810,350,-280,-132,128,0
644,-825,334,-306,-137,152,0
636,-854,320,-336,-158,189,0
626,-883,323,-347,-187,224,0
622,-905,328,-330,-219,246,0
601,-903,321,-310,-245,250,0
552,-913,280,-315,-245,265,0
526,-883,239,-337,-203,282,0
526,-883,239,-337,-159,296,0
510,-841,199,-353,-159,296,0
491,-795,150,-383,-129,305,0
481,-756,87,-439,-121,297,0
490,-731,42,-496,-130,255,0
523,-728,36,-523,-158,188,0
566,-758,40,-518,-201,117,0
582,-766,55,-501,-233,51,0
593,-802,60,-462,-249,3,0
577,-842,55,-423,-238,-22,0
555,-868,40,-401,-198,-26,0
528,-879,39,-395,-138,-7,0
498,-882,30,-397,-83,27,0
475,-885,25,-410,-36,66,0
460,-883,18,-428,4,106,0
452,-880,1,-448,46,142,0
452,-882,-22,-470,84,171,0
457,-871,-43,-492,110,185,0
466,-856,-56,-499,111,183,0
483,-839,-52,-488,94,162,0
483,-839,-52,-488,68,122,0
511,-831,-39,-456,68,122,0
539,-837,-18,-410,48,72,0
560,-850,5,-357,43,24,0
562,-867,10,-307,54,-12,0
547,-887,-8,-278,84,-29,0
530,-905,-32,-274,127,-26,0
517,-915,-36,-274,162,-10,0
504,-918,-25,-259,181,9,0
490,-909,-2,-231,187,26,0
482,-899,17,-202,184,36,0
470,-890,25,-176,181,38,0
460,-881,23,-157,176,33,0
456,-869,22,-145,167,26,0
455,-864,7,-139,156,20,0
460,-859,-5,-145,148,13,0
470,-854,-16,-158,143,11,0
473,-853,-25,-180,137,13,0
480,-856,-33,-203,134,19,0
483,-858,-41,-228,132,26,0
483,-858,-41,-228,126,32,0
491,-859,-48,-247,126,32,0
492,-861,-54,-260,114,34,0
493,-867,-68,-266,93,31,0
482,-870,-75,-261,76,22,0
475,-879,-77,-254,66,12,0
458,-893,-92,-249,60,6,0
447,-907,-99,-233,49,1,0
447,-917,-100,-219,40,4,0
452,-932,-94,-213,44,10,0
460,-940,-81,-200,60,13,0
455,-928,-75,-194,97,15,0
444,-927,-88,-204,153,16,0
443,-930,-95,-206,198,16,0
441,-942,-84,-206,230,19,0
437,-946,-78,-214,258,22,0
434,-939,-87,-228,282,26,0
434,-937,-97,-239,306,32,0
428,-931,-92,-247,324,39,0
427,-921,-94,-251,337,40,0
427,-921,-94,-254,358,36,0
429,-911,-89,-254,358,36,0
431,-912,-87,-253,381,37,0
440,-914,-95,-252,400,39,0
443,-908,-99,-244,412,36,0
440,-897,-97,-236,415,30,0
434,-891,-95,-229,414,20,0
425,-889,-92,-219,414,5,0
420,-891,-84,-213,413,-7,0
409,-903,-81,-210,404,-16,0
390,-912,-83,-206,393,-24,0
378,-922,-79,-202,381,-28,0
375,-928,-75,-194,363,-28,0
376,-933,-73,-190,343,-25,0
384,-935,-61,-191,327,-20,0
393,-935,-58,-193,311,-14,0
402,-931,-49,-191,299,-14,0
400,-928,-35,-186,288,-21,0
408,-915,-53,-185,270,-34,0
404,-922,-53,-168,281,-39,0
404,-922,-53,-158,279,-50,0
401,-925,-51,-158,279,-50,0
390,-931,-50,-149,273,-61,0
384,-939,-47,-139,249,-80,0
382,-950,-48,-115,241,-88,0
372,-963,-30,-93,228,-91,0
358,-968,-25,-84,218,-94,0
348,-969,-18,-81,201,-99,0
348,-964,-41,-74,195,-93,0
352,-958,-48,-68,196,-81,0
349,-958,-45,-64,200,-75,0
340,-967,-36,-59,194,-77,0
359,-955,-55,-56,168,-84,0
367,-957,-52,-44,161,-79,0
386,-946,-63,-39,151,-71,0
406,-926,-50,-45,165,-64,0
417,-916,-48,-62,197,-57,0
432,-899,-44,-76,226,-58,0
437,-879,-56,-87,255,-64,0
458,-884,-59,-103,280,-77,0
458,-884,-59,-107,311,-90,0
457,-884,-52,-107,311,-90,0
443,-894,-47,-113,328,-108,0
423,-902,-57,-116,342,-121,0
407,-912,-58,-103,357,-124,0
397,-918,-68,-80,357,-122,0
393,-920,-81,-53,350,-106,0
399,-917,-74,-37,346,-69,0
409,-894,-59,-42,340,-17,0
441,-878,-46,-52,336,35,0
496,-852,-51,-46,321,60,0
535,-832,-56,-24,312,54,0
546,-822,-56,8,320,34,0
550,-818,-51,44,338,3,0
536,-813,-55,81,346,-37,0
504,-807,-46,94,364,-69,0
744,-820,124,94,206,-388,0
716,-812,118,118,232,-420,0
669,-790,122,137,271,-442,0
643,-751,125,142,312,-443,0
619,-734,122,131,360,-440,0
593,-748,128,102,410,-429,0
568,-754,111,91,405,-416,0
568,-754,111,91,405,-397,0
576,-756,114,86,356,-397,0
574,-765,125,79,296,-360,0
576,-769,136,72,236,-311,0
587,-783,152,55,194,-257,0
604,-789,179,27,173,-203,0
617,-792,212,3,142,-154,0
613,-786,246,-9,77,-110,0
594,-782,263,-23,-5,-73,0
567,-769,254,-48,-74,-43,0
561,-753,217,-83,-112,-14,0
574,-743,164,-112,-126,12,0
595,-737,121,-127,-132,36,0
620,-732,103,-141,-143,61,0
645,-719,100,-159,-165,90,0
664,-707,96,-185,-186,120,0
679,-700,91,-230,-188,157,0
694,-698,80,-279,-174,194,0
708,-710,62,-321,-146,223,0
711,-732,42,-348,-108,240,0
711,-732,42,-348,-108,245,0
712,-744,24,-361,-69,245,0
707,-761,13,-359,-42,241,0
695,-772,8,-344,-37,228,0
677,-783,-3,-321,-54,212,0
662,-785,-7,-299,-78,195,0
652,-782,2,-281,-100,179,0
646,-782,11,-265,-114,163,0
635,-790,15,-257,-110,150,0
635,-794,26,-251,-86,140,0
638,-809,41,-251,-53,138,0
642,-847,49,-250,-21,142,0
649,-872,43,-256,3,141,0
654,-876,30,-267,13,131,0
644,-867,14,-265,3,104,0
641,-841,-9,-243,-23,62,0
634,-817,-9,-201,-53,20,0
634,-797,8,-148,-95,-14,0
643,-777,39,-91,-139,-37,0
635,-784,60,-46,-170,-46,0
635,-784,60,-46,-170,-36,0
610,-798,76,-27,-175,-36,0
575,-809,74,-33,-150,-11,0
538,-834,40,-56,-96,29,0
515,-844,34,-75,-18,77,0
490,-861,24,-92,47,127,0
479,-868,20,-110,94,173,0
484,-871,9,-123,104,209,0
503,-871,-4,-126,75,226,0
521,-867,-15,-118,23,219,0
536,-864,-28,-104,-41,201,0
547,-857,-28,-86,-106,173,0
553,-856,-22,-56,-160,144,0
555,-853,-17,-22,-187,115,0
558,-855,-9,5,-182,88,0
556,-858,-6,22,-142,66,0
546,-863,-13,16,-76,52,0
533,-868,-17,-1,0,47,0
527,-867,-17,-11,55,49,0
516,-866,-25,-17,80,55,0
516,-866,-25,-17,80,62,0
498,-863,-43,-28,87,62,0
485,-861,-57,-35,78,68,0
479,-859,-59,-35,55,72,0
477,-863,-56,-36,24,75,0
478,-868,-48,-40,-5,79,0
480,-870,-37,-43,-28,83,0
479,-875,-25,-38,-42,83,0
480,-878,-20,-36,-42,82,0
482,-879,-17,-37,-32,81,0
483,-882,-24,-33,-19,80,0
485,-885,-39,-30,-6,76,0
488,-884,-53,-30,2,72,0
494,-880,-56,-27,1,66,0
499,-873,-53,-23,-10,61,0
499,-872,-52,-20,-23,56,0
496,-873,-53,-20,-28,52,0
491,-874,-48,-19,-26,49,0
488,-876,-43,-14,-20,47,0
484,-878,-46,-15,-6,46,0
484,-878,-46,-15,-6,46,0
478,-876,-47,-19,11,46,0
476,-874,-49,-21,26,43,0
473,-874,-53,-22,34,38,0
472,-879,-57,-18,37,32,0
472,-882,-54,-16,35,25,0
465,-884,-53,-12,30,22,0
462,-889,-52,-6,29,21,0
461,-889,-44,0,28,22,0
460,-887,-42,3,26,23,0
456,-886,-45,2,25,25,0
451,-884,-45,1,28,25,0
449,-884,-44,0,31,27,0
450,-883,-53,1,29,31,0
450,-887,-55,-1,25,34,0
455,-887,-50,-1,14,37,0
455,-888,-48,0,0,39,0
454,-885,-51,3,-14,38,0
455,-881,-52,5,-21,37,0
459,-882,-51,9,-24,36,0
459,-882,-51,9,-24,36,0
463,-880,-52,10,-20,37,0
464,-881,-52,6,-13,37,0
462,-889,-49,6,-14,34,0
465,-889,-50,12,-21,32,0
468,-887,-49,19,-28,31,0
468,-887,-50,25,-33,30,0
463,-885,-51,31,-34,28,0
463,-884,-54,32,-33,28,0
464,-886,-56,33,-30,29,0
466,-887,-58,31,-27,30,0
469,-886,-54,29,-25,31,0
468,-884,-49,28,-25,32,0
464,-882,-54,29,-23,30,0
461,-880,-57,27,-23,28,0
463,-881,-57,29,-23,24,0
462,-882,-55,29,-23,22,0
461,-885,-60,27,-19,23,0
458,-887,-63,24,-11,24,0
459,-882,-63,22,-8,24,0
459,-882,-63,22,-8,24,0
418,-917,-30,27,-47,5,0
418,-919,-28,34,-49,4,0
418,-919,-27,41,-51,3,0
418,-917,-24,44,-54,2,0
414,-912,-29,42,-55,2,0
410,-911,-35,41,-56,1,0
408,-912,-36,42,-59,-1,0
406,-913,-36,42,-63,-4,0
406,-913,-36,42,-63,-4,0
406,-917,-35,43,-67,-4,0
408,-918,-33,44,-73,-4,0
410,-919,-35,46,-79,-4,0
411,-917,-36,49,-86,-4,0
414,-916,-36,51,-89,-4,0
415,-915,-35,52,-90,-4,0
415,-914,-36,54,-89,-6,0
418,-912,-34,56,-87,-6,0
420,-914,-33,59,-83,-7,0
419,-914,-35,60,-81,-8,0
415,-915,-40,59,-80,-9,0
416,-915,-40,60,-80,-10,0
415,-916,-42,59,-81,-11,0
413,-914,-42,59,-81,-11,0
414,-913,-41,61,-82,-12,0
413,-914,-38,62,-86,-12,0
412,-912,-38,62,-88,-14,0
408,-911,-45,62,-90,-15,0
408,-912,-43,62,-94,-16,0
408,-912,-43,62,-94,-16,0
407,-914,-45,62,-100,-17,0
405,-915,-47,61,-104,-18,0
407,-917,-46,62,-106,-18,0
412,-914,-49,62,-110,-17,0
418,-912,-52,65,-112,-18,0
424,-909,-47,66,-112,-18,0
425,-908,-49,65,-110,-20,0
425,-908,-50,63,-106,-22,0
425,-908,-50,62,-101,-24,0
421,-910,-55,59,-98,-25,0
419,-910,-54,56,-96,-24,0
416,-908,-56,53,-96,-24,0
417,-906,-54,54,-98,-25,0
419,-908,-56,53,-100,-26,0
416,-910,-56,52,-101,-27,0
419,-911,-55,51,-99,-26,0
420,-909,-56,48,-96,-25,0
425,-908,-55,48,-92,-25,0
425,-908,-54,47,-88,-24,0
428,-908,-54,47,-88,-24,0
427,-907,-55,45,-87,-25,0
423,-905,-53,45,-85,-27,0
420,-907,-52,44,-83,-30,0
417,-909,-53,43,-82,-31,0
417,-909,-55,41,-80,-32,0
412,-907,-56,38,-77,-31,0
409,-910,-57,35,-77,-31,0
409,-915,-60,35,-77,-32,0
411,-915,-58,34,-79,-33,0
412,-918,-69,30,-82,-33,0
413,-909,-66,26,-79,-31,0
408,-907,-70,24,-78,-29,0
405,-906,-71,22,-72,-31,0
409,-906,-69,20,-70,-33,0
414,-909,-65,21,-72,-37,0
412,-914,-69,23,-73,-42,0
408,-915,-68,23,-73,-44,0
401,-915,-69,22,-71,-44,0
401,-915,-71,19,-69,-43,0
397,-918,-71,19,-69,-43,0
400,-922,-73,16,-68,-40,0
409,-920,-72,17,-68,-37,0
415,-915,-69,20,-69,-37,0
413,-910,-68,22,-67,-39,0
413,-911,-66,26,-63,-44,0
416,-915,-67,30,-57,-49,0
419,-919,-62,37,-55,-54,0
415,-922,-62,39,-57,-57,0
410,-920,-65,40,-55,-59,0
411,-916,-68,39,-49,-57,0
413,-911,-71,36,-44,-55,0
416,-911,-70,37,-40,-54,0
419,-911,-73,38,-37,-56,0
424,-910,-73,38,-36,-60,0
426,-909,-68,37,-35,-65,0
423,-907,-69,35,-31,-68,0
421,-905,-77,31,-25,-70,0
421,-906,-78,26,-20,-71,0
421,-906,-79,21,-15,-72,0
419,-905,-79,21,-15,-72,0
420,-904,-80,14,-8,-71,0
421,-903,-78,10,-3,-71,0
419,-904,-78,8,0,-73,0
423,-906,-79,9,2,-77,0
424,-908,-79,7,3,-81,0
423,-909,-79,5,4,-83,0
419,-910,-78,2,8,-83,0
416,-911,-78,0,14,-83,0
415,-909,-75,0,19,-82,0
420,-907,-72,2,21,-83,0
424,-909,-72,8,21,-84,0
425,-910,-71,13,23,-87,0
425,-910,-69,16,27,-89,0
426,-909,-65,17,30,-90,0
424,-910,-65,19,31,-91,0
423,-909,-68,23,33,-92,0
424,-906,-67,24,35,-92,0
427,-904,-63,25,37,-91,0
427,-904,-63,26,39,-91,0
428,-903,-63,26,39,-91,0
428,-903,-65,28,43,-91,0
430,-901,-63,30,47,-93,0
426,-900,-64,32,50,-96,0
431,-901,-63,33,52,-98,0
434,-901,-60,38,51,-100,0
433,-899,-60,39,48,-100,0
432,-898,-62,40,46,-101,0
431,-898,-62,42,48,-102,0
432,-898,-61,42,51,-101,0
435,-899,-58,40,55,-99,0
439,-896,-60,37,59,-96,0
440,-893,-60,35,62,-95,0
446,-891,-57,35,63,-94,0
450,-888,-54,35,61,-95,0
451,-890,-49,38,59,-98,0
450,-892,-47,45,58,-103,0
452,-892,-43,48,62,-107,0
448,-892,-42,47,67,-108,0
448,-892,-43,48,73,-108,0
498,-854,-1,81,20,-137,0
510,-852,-1,78,18,-133,0
510,-852,-1,80,15,-131,0
517,-853,-3,80,15,-131,0
533,-856,-1,86,13,-135,0
543,-852,3,96,12,-146,0
544,-848,11,103,14,-154,0
543,-846,19,106,19,-159,0
542,-845,21,110,25,-162,0
544,-842,24,116,32,-163,0
551,-844,23,126,41,-166,0
561,-844,26,139,53,-167,0
572,-841,33,153,63,-169,0
585,-841,41,170,65,-174,0
594,-841,47,193,64,-181,0
597,-839,54,218,65,-188,0
599,-839,63,243,70,-190,0
604,-838,69,266,81,-190,0
613,-830,77,287,98,-189,0
618,-835,83,309,108,-188,0
622,-829,86,337,114,-189,0
624,-829,91,363,119,-192,0
624,-829,91,388,124,-192,0
635,-823,104,388,124,-192,0
642,-818,116,410,126,-188,0
649,-825,133,425,124,-184,0
649,-828,149,437,117,-179,0
642,-835,163,451,101,-174,0
638,-835,173,466,84,-165,0
644,-829,179,477,68,-152,0
644,-822,185,476,58,-139,0
652,-818,189,472,44,-122,0
659,-812,194,459,27,-97,0
652,-811,190,436,7,-72,0
642,-808,175,412,-8,-51,0
623,-801,162,392,-13,-34,0
612,-790,150,384,-12,-24,0
605,-780,143,380,-9,-18,0
606,-776,141,370,-5,-16,0
606,-772,145,354,0,-13,0
601,-767,146,331,9,-6,0
594,-767,143,306,18,4,0
594,-767,143,286,26,16,0
594,-760,140,286,26,16,0
598,-752,145,268,35,23,0
608,-758,149,251,37,29,0
614,-762,158,236,40,32,0
615,-764,174,230,31,35,0
606,-769,182,230,12,39,0
593,-771,190,229,-3,41,0
580,-771,202,225,-12,47,0
567,-771,213,218,-14,56,0
558,-775,216,209,-16,66,0
555,-779,217,196,-18,76,0
547,-789,215,187,-24,87,0
540,-799,214,184,-35,100,0
539,-803,213,180,-43,111,0
537,-806,211,177,-47,124,0
535,-807,213,175,-49,135,0
539,-810,212,173,-51,145,0
545,-816,216,168,-52,155,0
549,-820,215,166,-60,166,0
549,-820,215,163,-65,179,0
554,-826,224,163,-65,179,0
557,-825,228,161,-67,187,0
560,-821,231,164,-71,191,0
559,-820,238,168,-76,189,0
560,-830,237,173,-80,191,0
562,-837,234,176,-77,192,0
558,-835,231,177,-73,187,0
558,-832,224,184,-72,177,0
560,-827,214,192,-75,163,0
566,-823,212,200,-77,146,0
572,-814,214,206,-81,123,0
576,-809,218,209,-84,101,0
578,-804,221,213,-88,77,0
579,-800,224,219,-93,52,0
577,-798,225,225,-98,27,0
574,-797,223,232,-103,5,0
569,-798,223,236,-102,-12,0
564,-799,224,238,-100,-26,0
559,-799,227,234,-97,-36,0
559,-799,227,225,-93,-43,0
556,-798,231,225,-93,-43,0
549,-801,236,211,-90,-45,0
543,-802,239,195,-87,-42,0
537,-804,245,177,-84,-34,0
529,-806,249,159,-81,-23,0
523,-806,253,139,-77,-9,0
519,-808,257,120,-70,3,0
514,-810,262,100,-63,16,0
512,-812,264,82,-58,25,0
514,-814,267,67,-59,29,0
520,-813,267,56,-63,29,0
528,-813,266,49,-72,26,0
539,-813,265,48,-85,19,0
546,-810,263,50,-96,12,0
553,-807,262,52,-105,2,0
555,-803,261,52,-111,-6,0
553,-804,259,48,-109,-14,0
551,-806,254,44,-103,-22,0
550,-807,251,42,-94,-30,0
550,-807,251,40,-88,-38,0
551,-807,249,40,-88,-38,0
553,-807,250,37,-84,-46,0
557,-807,252,36,-84,-54,0
559,-810,253,36,-88,-63,0
561,-811,256,37,-93,-70,0
561,-811,256,40,-100,-76,0
563,-809,257,44,-104,-81,0
562,-807,259,45,-105,-84,0
562,-806,259,43,-103,-86,0
559,-803,259,41,-99,-87,0
557,-801,258,38,-94,-87,0
556,-801,259,35,-87,-89,0
554,-800,259,33,-82,-89,0
552,-799,258,31,-78,-89,0
552,-797,261,30,-78,-87,0
549,-794,262,27,-80,-84,0
542,-792,259,24,-84,-80,0
538,-789,256,21,-85,-75,0
535,-784,253,18,-87,-71,0
535,-784,253,13,-90,-66,0
536,-781,253,13,-90,-66,0
533,-776,254,6,-93,-60,0
532,-772,252,-1,-97,-54,0
528,-763,251,-11,-100,-48,0
527,-771,253,-25,-97,-38,0
416,-818,112,-203,-27,65,0
415,-845,104,-213,-85,89,0
420,-859,114,-209,-149,107,0
416,-864,128,-198,-202,126,0
429,-876,134,-202,-232,148,0
455,-877,132,-215,-245,165,0
486,-879,114,-223,-252,173,0
515,-874,97,-220,-258,169,0
533,-876,88,-195,-267,159,0
551,-863,86,-151,-274,144,0
556,-863,84,-106,-270,116,0
559,-859,88,-77,-250,90,0
554,-860,82,-66,-225,67,0
537,-857,66,-67,-197,49,0
537,-857,66,-77,-169,40,0
515,-856,52,-77,-169,40,0
499,-860,44,-88,-144,37,0
487,-864,46,-92,-129,43,0
474,-862,33,-96,-132,50,0
461,-864,26,-115,-134,64,0
458,-858,35,-127,-135,81,0
453,-857,49,-129,-146,94,0
452,-861,40,-129,-157,103,0
451,-865,31,-134,-158,102,0
454,-872,27,-132,-157,99,0
456,-882,28,-124,-157,97,0
463,-883,25,-119,-160,96,0
461,-885,21,-115,-166,94,0
455,-889,18,-104,-172,94,0
455,-889,14,-92,-180,92,0
448,-891,11,-87,-190,90,0
443,-893,7,-87,-203,91,0
442,-883,0,-91,-218,87,0
431,-883,5,-96,-230,86,0
431,-883,5,-96,-252,92,0
417,-893,8,-93,-252,92,0
408,-897,3,-78,-277,99,0
418,-895,2,-64,-292,102,0
425,-895,8,-55,-293,104,0
410,-887,1,-42,-295,102,0
411,-881,-12,-23,-310,100,0
414,-880,-25,-14,-314,100,0
418,-885,-27,-6,-315,93,0
418,-889,-22,5,-320,83,0
411,-894,-20,23,-331,71,0
400,-901,-12,36,-347,57,0
395,-908,-21,40,-368,43,0
396,-917,-44,38,-380,37,0
405,-915,-45,37,-394,39,0
405,-914,-47,44,-418,40,0
383,-919,-58,52,-431,32,0
386,-911,-70,47,-429,22,0
381,-912,-70,47,-408,18,0
388,-919,-59,38,-381,23,0
388,-919,-59,38,-363,28,0
399,-928,-52,35,-363,28,0
414,-937,-50,42,-351,33,0
422,-942,-57,59,-335,37,0
425,-942,-49,75,-313,39,0
426,-944,-39,89,-287,39,0
427,-942,-30,98,-253,41,0
422,-943,-27,105,-224,42,0
415,-939,-16,113,-200,42,0
403,-935,-3,117,-182,44,0
383,-932,-2,111,-166,46,0
366,-937,-2,109,-151,44,0
356,-945,-1,109,-145,42,0
348,-951,-10,100,-146,41,0
343,-953,-15,89,-149,41,0
348,-951,-20,79,-157,41,0
357,-944,-21,72,-168,41,0
358,-935,-22,71,-177,35,0
360,-932,-23,68,-180,29,0
364,-932,-23,69,-178,24,0
364,-932,-23,69,-181,23,0
379,-929,-21,72,-181,23,0
386,-928,-26,74,-186,22,0
397,-922,-37,73,-185,22,0
405,-914,-39,78,-182,20,0
408,-908,-39,83,-182,15,0
413,-909,-42,79,-177,11,0
427,-907,-36,77,-172,10,0
429,-905,-38,82,-173,11,0
421,-903,-42,88,-171,8,0
412,-904,-48,90,-164,3,0
405,-907,-51,85,-158,-1,0
398,-917,-45,74,-154,-3,0
390,-925,-33,63,-148,-4,0
386,-931,-24,54,-144,-3,0
384,-937,-20,56,-148,-5,0
376,-943,-20,61,-160,-13,0
365,-903,-34,55,-166,-21,0
346,-935,-15,36,-153,-14,0
355,-950,-5,36,-155,-13,0
355,-950,-5,36,-159,-6,0
362,-950,-13,32,-159,-6,0
368,-947,-14,27,-162,-1,0
372,-944,-11,30,-167,-1,0
374,-938,-18,30,-168,-3,0
377,-932,-19,28,-165,-3,0
382,-932,-17,31,-163,-5,0
389,-934,-21,31,-159,-9,0
396,-934,-25,31,-154,-12,0
401,-932,-33,31,-150,-13,0
401,-925,-35,28,-146,-13,0
400,-916,-35,25,-141,-12,0
400,-911,-38,25,-134,-12,0
398,-909,-48,24,-131,-15,0
396,-909,-60,21,-127,-19,0
399,-915,-57,17,-123,-22,0
401,-921,-56,16,-124,-24,0
400,-924,-59,17,-123,-26,0
402,-923,-59,19,-120,-26,0
399,-921,-56,18,-114,-23,0
399,-921,-56,18,-108,-20,0
396,-923,-57,16,-108,-20,0
393,-922,-58,10,-99,-18,0
391,-921,-56,5,-88,-16,0
392,-924,-52,0,-78,-16,0
390,-928,-51,-4,-68,-16,0
385,-934,-55,-6,-59,-17,0
380,-931,-59,-6,-51,-18,0
376,-928,-54,-2,-44,-18,0
374,-927,-53,0,-39,-18,0
376,-928,-56,6,-36,-20,0
379,-931,-57,14,-33,-22,0
382,-932,-61,18,-33,-22,0
385,-931,-62,21,-35,-21,0
404,-916,-92,45,-107,-40,0
401,-919,-89,42,-101,-38,0
400,-921,-87,39,-97,-33,0
401,-921,-85,41,-95,-30,0
402,-921,-81,45,-91,-30,0
403,-921,-82,49,-88,-30,0
402,-917,-80,52,-83,-31,0
403,-920,-79,53,-79,-31,0
403,-920,-79,53,-79,-31,0
400,-918,-81,53,-77,-30,0
398,-917,-79,52,-71,-30,0
396,-918,-78,51,-64,-29,0
395,-918,-78,48,-56,-28,0
395,-916,-76,45,-50,-27,0
397,-917,-75,43,-46,-26,0
396,-916,-77,42,-44,-27,0
396,-911,-77,40,-41,-28,0
398,-912,-77,38,-41,-28,0
400,-910,-72,38,-40,-29,0
404,-913,-66,37,-42,-29,0
405,-918,-66,36,-47,-30,0
402,-920,-64,37,-52,-31,0
398,-922,-64,39,-55,-32,0
396,-921,-64,40,-54,-30,0
396,-917,-65,39,-50,-28,0
394,-914,-67,36,-46,-25,0
393,-915,-68,33,-43,-24,0
396,-917,-70,31,-40,-25,0
396,-917,-70,31,-40,-25,0
399,-922,-72,29,-40,-25,0
403,-924,-69,30,-42,-27,0
405,-925,-66,32,-45,-28,0
403,-924,-66,34,-46,-30,0
402,-920,-66,39,-43,-31,0
403,-918,-64,42,-38,-29,0
401,-916,-63,42,-32,-28,0
400,-915,-65,41,-27,-25,0
400,-913,-66,39,-23,-23,0
399,-913,-65,37,-23,-22,0
397,-913,-63,37,-25,-22,0
395,-913,-65,36,-27,-23,0
394,-912,-65,34,-30,-22,0
395,-913,-64,32,-32,-22,0
393,-912,-61,29,-34,-21,0
393,-915,-63,26,-33,-20,0
394,-915,-62,24,-33,-19,0
396,-915,-62,23,-35,-20,0
397,-916,-63,23,-38,-21,0
397,-916,-63,23,-38,-21,0
398,-917,-63,23,-40,-21,0
398,-916,-59,24,-43,-22,0
398,-916,-61,24,-44,-21,0
398,-915,-63,23,-43,-21,0
400,-915,-63,23,-40,-21,0
401,-916,-62,25,-38,-21,0
402,-918,-62,25,-35,-21,0
401,-918,-64,24,-32,-21,0
401,-919,-65,25,-28,-21,0
401,-919,-66,26,-26,-22,0
400,-919,-65,27,-23,-21,0
399,-919,-65,26,-20,-21,0
397,-920,-67,26,-17,-21,0
396,-921,-67,25,-14,-20,0
396,-919,-66,24,-12,-18,0
394,-919,-65,24,-10,-18,0
394,-918,-65,24,-7,-17,0
391,-918,-64,24,-5,-17,0
391,-920,-61,24,-4,-16,0
391,-920,-61,24,-4,-16,0
390,-921,-63,24,-2,-16,0
387,-922,-60,23,-2,-16,0
385,-923,-61,22,-2,-16,0
382,-923,-62,21,-3,-16,0
382,-922,-64,19,-4,-16,0
384,-922,-64,19,-7,-15,0
386,-923,-64,19,-10,-14,0
386,-923,-62,19,-13,-13,0
384,-923,-63,20,-15,-13,0
383,-923,-64,21,-16,-12,0
383,-923,-65,23,-17,-12,0
385,-922,-64,25,-18,-12,0
387,-922,-64,27,-19,-12,0
390,-921,-64,29,-21,-13,0
390,-920,-67,30,-22,-14,0
389,-920,-70,32,-24,-16,0
385,-920,-72,33,-25,-17,0
387,-918,-71,34,-27,-18,0
387,-913,-68,30,-27,-16,0
387,-913,-68,30,-27,-16,0
387,-915,-67,27,-29,-15,0
388,-915,-70,26,-30,-13,0
388,-914,-69,26,-33,-13,0
386,-913,-70,25,-37,-14,0
387,-915,-65,23,-39,-15,0
390,-916,-63,21,-40,-16,0
392,-918,-64,20,-41,-15,0
392,-918,-65,19,-42,-15,0
391,-919,-65,17,-42,-15,0
390,-919,-65,17,-39,-14,0
392,-919,-67,17,-39,-13,0
392,-917,-64,15,-39,-12,0
391,-917,-65,15,-39,-13,0
391,-917,-66,16,-38,-15,0
393,-917,-68,18,-36,-17,0
393,-917,-69,19,-34,-19,0
392,-916,-69,19,-32,-20,0
393,-918,-69,18,-30,-22,0
391,-922,-71,16,-28,-22,0
391,-922,-71,16,-28,-22,0
389,-924,-70,15,-26,-22,0
386,-926,-72,15,-25,-21,0
385,-928,-71,14,-22,-19,0
384,-928,-70,13,-20,-17,0
382,-929,-69,13,-18,-14,0
381,-931,-67,13,-16,-12,0
381,-931,-65,15,-13,-11,0
379,-930,-65,17,-9,-12,0
384,-927,-65,18,-7,-13,0
386,-928,-64,20,-3,-14,0
385,-925,-66,22,0,-15,0
384,-925,-65,23,3,-16,0
384,-925,-66,23,6,-18,0
382,-926,-65,24,10,-18,0
383,-927,-65,24,13,-18,0
382,-929,-66,24,16,-17,0
382,-929,-66,24,17,-16,0
382,-928,-66,24,18,-15,0
383,-927,-68,25,19,-14,0
379,-925,-59,5,54,-23,0
377,-924,-56,4,51,-22,0
376,-926,-53,0,45,-20,0
376,-930,-51,2,42,-20,0
372,-932,-52,5,42,-20,0
370,-928,-57,6,43,-19,0
372,-925,-57,11,42,-21,0
374,-923,-57,16,39,-25,0
374,-921,-60,14,33,-29,0
374,-921,-60,14,23,-30,0
373,-925,-55,10,23,-30,0
365,-932,-56,8,13,-31,0
358,-930,-59,8,8,-32,0
356,-923,-57,8,3,-32,0
358,-919,-58,9,-3,-31,0
366,-920,-53,6,-11,-33,0
368,-926,-41,7,-16,-36,0
362,-936,-35,5,-17,-36,0
359,-942,-34,4,-17,-34,0
359,-937,-35,4,-18,-30,0
362,-935,-33,7,-22,-29,0
366,-934,-32,9,-27,-29,0
369,-931,-30,11,-31,-30,0
371,-931,-25,16,-33,-31,0
372,-934,-24,18,-35,-30,0
373,-936,-21,21,-37,-29,0
374,-937,-20,28,-38,-29,0
375,-939,-22,36,-39,-32,0
378,-940,-26,42,-41,-33,0
378,-940,-26,42,-43,-32,0
380,-939,-28,47,-43,-32,0
384,-932,-32,50,-43,-31,0
387,-928,-33,53,-45,-30,0
389,-925,-32,57,-44,-31,0
385,-921,-33,59,-45,-31,0
382,-922,-34,58,-44,-31,0
376,-925,-36,52,-42,-29,0
372,-927,-40,47,-41,-25,0
371,-928,-40,44,-40,-23,0
376,-926,-40,43,-43,-21,0
376,-928,-43,45,-47,-21,0
376,-927,-45,45,-47,-22,0
376,-927,-48,47,-48,-22,0
376,-926,-45,49,-51,-22,0
373,-927,-43,52,-53,-23,0
370,-926,-46,54,-55,-23,0
370,-927,-50,55,-58,-23,0
372,-927,-48,58,-64,-24,0
373,-926,-47,61,-70,-24,0
373,-926,-47,61,-77,-25,0
373,-926,-48,65,-77,-25,0
373,-925,-49,67,-82,-26,0
373,-925,-51,69,-86,-27,0
372,-927,-54,68,-90,-26,0
374,-927,-55,68,-92,-26,0
377,-927,-61,70,-95,-26,0
380,-924,-64,68,-98,-27,0
381,-923,-63,70,-99,-27,0
383,-922,-64,71,-101,-28,0
382,-922,-69,71,-100,-29,0
384,-922,-74,69,-100,-28,0
383,-921,-74,69,-101,-28,0
385,-920,-77,67,-102,-28,0
384,-920,-82,65,-102,-29,0
386,-920,-83,63,-101,-29,0
388,-921,-88,60,-101,-30,0
388,-922,-94,57,-102,-31,0
386,-920,-97,53,-104,-31,0
387,-917,-106,48,-104,-30,0
387,-917,-106,48,-104,-30,0
393,-918,-107,43,-104,-30,0
399,-920,-110,43,-102,-30,0
405,-920,-114,43,-92,-31,0
406,-920,-121,44,-79,-33,0
407,-918,-125,45,-65,-34,0
413,-919,-122,46,-47,-35,0
413,-922,-112,49,-28,-37,0
408,-926,-109,55,-8,-38,0
396,-931,-106,62,8,-40,0
387,-934,-103,69,16,-41,0
374,-935,-99,75,20,-39,0
374,-931,-92,80,20,-37,0
368,-928,-84,84,19,-34,0
362,-924,-76,86,16,-34,0
358,-925,-71,87,11,-35,0
356,-925,-70,89,3,-38,0
356,-927,-68,87,-6,-40,0
355,-929,-65,83,-20,-43,0
354,-924,-63,82,-32,-45,0
354,-924,-63,82,-45,-46,0
358,-923,-56,84,-45,-46,0
364,-925,-52,86,-56,-47,0
369,-926,-52,87,-65,-49,0
373,-925,-50,92,-74,-49,0
375,-920,-47,97,-81,-50,0
378,-920,-40,101,-87,-52,0
381,-919,-35,105,-92,-53,0
386,-921,-35,106,-98,-54,0
385,-920,-37,107,-100,-55,0
383,-918,-38,110,-101,-56,0
385,-914,-40,112,-100,-59,0
388,-914,-35,115,-98,-62,0
394,-916,-30,120,-93,-64,0
398,-921,-28,127,-88,-66,0
398,-923,-31,135,-82,-67,0
397,-927,-32,141,-77,-68,0
395,-924,-35,144,-75,-67,0
394,-917,-32,142,-76,-66,0
395,-907,-22,132,-86,-63,0
395,-907,-22,132,-109,-65,0
404,-903,-6,139,-109,-65,0
409,-908,6,157,-134,-74,0
399,-923,8,166,-148,-89,0
391,-927,-4,175,-147,-103,0
388,-925,-24,196,-153,-110,0
385,-926,-29,222,-180,-112,0
375,-932,-34,221,-193,-110,0
378,-920,-46,196,-184,-102,0
394,-906,-44,181,-177,-92,0
420,-897,-25,188,-182,-88,0
447,-898,6,199,-192,-91,0
452,-903,-3,211,-199,-97,0
441,-901,-22,221,-196,-107,0
427,-892,-33,216,-190,-119,0
426,-887,-14,200,-183,-123,0
430,-889,0,190,-175,-125,0
436,-896,13,182,-168,-124,0
437,-906,19,173,-161,-124,0
387,-931,-29,37,-35,-23,0
398,-928,-29,37,-35,-23,0
409,-925,-34,46,-49,-22,0
423,-919,-38,55,-57,-22,0
436,-910,-32,63,-60,-25,0
438,-904,-42,73,-67,-31,0
436,-899,-57,88,-85,-39,0
437,-897,-55,92,-90,-44,0
433,-900,-48,95,-86,-47,0
422,-901,-46,111,-89,-53,0
406,-901,-58,131,-107,-58,0
398,-904,-76,146,-131,-63,0
399,-907,-84,163,-161,-69,0
404,-912,-95,182,-208,-74,0
391,-909,-105,197,-265,-69,0
378,-916,-104,218,-322,-58,0
381,-924,-88,235,-356,-43,0
383,-936,-88,248,-375,-19,0
381,-943,-103,271,-404,4,0
379,-942,-118,303,-448,20,0
379,-942,-118,333,-497,29,0
381,-939,-129,333,-497,29,0
381,-935,-140,360,-541,34,0
385,-943,-155,375,-563,33,0
373,-928,-161,373,-551,22,0
355,-917,-152,374,-532,7,0
347,-913,-153,384,-513,-10,0
350,-920,-140,396,-487,-28,0
350,-930,-131,406,-459,-43,0
359,-941,-131,416,-435,-51,0
380,-948,-127,423,-408,-51,0
409,-937,-110,427,-386,-47,0
436,-923,-86,427,-367,-37,0
462,-903,-68,423,-351,-22,0
486,-872,-58,421,-336,-8,0
527,-836,-30,427,-313,-5,0
563,-803,10,403,-265,4,0
556,-787,37,378,-225,6,0
518,-808,65,386,-211,-15,0
465,-820,102,406,-194,-55,0
465,-820,102,414,-166,-95,0
416,-846,141,414,-166,-95,0
380,-871,184,419,-141,-130,0
370,-917,217,426,-138,-159,0
391,-948,230,439,-154,-176,0
423,-965,241,457,-163,-180,0
460,-975,269,478,-146,-173,0
498,-961,302,473,-127,-153,0
534,-930,299,437,-114,-129,0
560,-902,289,395,-123,-112,0
572,-889,290,372,-146,-102,0
567,-895,296,396,-164,-103,0
542,-924,302,472,-171,-109,0
513,-944,293,580,-164,-114,0
481,-952,289,671,-161,-99,0
466,-937,319,695,-171,-73,0
464,-942,370,684,-205,-41,0
470,-939,364,661,-249,-12,0
461,-945,335,658,-273,21,0
450,-939,304,666,-302,51,0
450,-939,304,676,-326,76,0
435,-921,295,676,-326,76,0
447,-890,285,670,-346,90,0
465,-864,289,645,-350,101,0
489,-840,267,615,-340,112,0
488,-821,296,581,-329,113,0
493,-808,286,524,-357,96,0
485,-783,273,487,-353,71,0
466,-769,263,451,-332,53,0
457,-770,264,413,-303,43,0
465,-774,268,371,-284,37,0
474,-777,261,324,-266,38,0
477,-780,258,276,-242,42,0
475,-782,263,237,-219,41,0
478,-776,260,201,-202,35,0
482,-773,257,169,-183,32,0
480,-770,253,142,-162,28,0
481,-771,251,110,-138,18,0
480,-773,256,77,-109,5,0
477,-776,271,37,-77,-7,0
477,-776,271,0,-43,-15,0
474,-787,286,0,-43,-15,0
468,-804,292,-30,-5,-20,0
462,-816,290,-56,25,-20,0
455,-826,298,-76,46,-15,0
449,-836,304,-85,60,-7,0
440,-845,303,-88,71,0,0
429,-850,301,-86,77,0,0
426,-850,306,-80,77,-1,0
425,-854,311,-70,71,-4,0
427,-853,304,-60,63,-12,0
425,-854,300,-47,63,-24,0
426,-857,302,-38,66,-37,0
429,-859,299,-34,71,-51,0
436,-862,300,-33,78,-62,0
442,-860,301,-35,86,-71,0
448,-859,308,-35,95,-77,0
450,-861,301,-36,102,-79,0
447,-866,293,-38,102,-78,0
442,-870,289,-37,99,-74,0
442,-870,289,-31,96,-70,0
437,-873,288,-31,96,-70,0
435,-872,284,-25,91,-67,0
436,-870,283,-21,85,-67,0
442,-869,284,-16,78,-66,0
447,-867,290,-14,69,-67,0
450,-870,294,-11,66,-69,0
449,-872,280,-11,66,-71,0
447,-874,268,-12,64,-73,0
445,-875,260,-9,65,-76,0
442,-875,265,-7,70,-77,0
440,-877,273,-2,79,-79,0
442,-879,276,6,88,-79,0
443,-877,278,14,94,-80,0
443,-875,280,20,90,-81,0
443,-873,280,26,85,-81,0
441,-871,276,31,79,-81,0
440,-873,274,34,73,-81,0
439,-872,275,37,68,-80,0
437,-872,280,41,69,-78,0
437,-872,280,45,73,-77,0
438,-869,274,45,73,-77,0
438,-867,270,45,70,-76,0
437,-865,272,49,66,-76,0
435,-864,275,53,64,-77,0
436,-864,270,55,66,-78,0
438,-864,271,57,62,-78,0
437,-862,271,59,55,-77,0
442,-863,335,-180,-77,-56,0
462,-889,332,-181,-91,-44,0
485,-910,330,-189,-108,-28,0
508,-928,333,-197,-125,-12,0
508,-928,333,-198,-142,3,0
526,-943,335,-198,-142,3,0
539,-949,325,-196,-157,18,0
550,-940,317,-185,-163,28,0
550,-928,305,-168,-160,34,0
543,-914,291,-152,-159,37,0
534,-899,288,-137,-162,39,0
529,-896,297,-129,-161,47,0
526,-894,313,-125,-152,57,0
519,-892,332,-116,-140,58,0
498,-889,340,-100,-127,56,0
466,-887,329,-75,-119,56,0
437,-871,299,-51,-110,56,0
419,-843,268,-29,-99,50,0
405,-810,243,-17,-102,35,0
393,-789,238,-12,-121,16,0
392,-782,257,1,-154,-2,0
392,-795,278,16,-191,-15,0
390,-820,288,20,-216,-18,0
395,-841,282,11,-222,-13,0
395,-841,282,-9,-213,-4,0
411,-854,272,-9,-213,-4,0
432,-863,261,-34,-205,7,0
452,-877,248,-60,-200,20,0
464,-885,231,-83,-190,37,0
467,-891,215,-108,-175,54,0
469,-907,201,-131,-157,67,0
473,-921,188,-152,-141,76,0
486,-936,174,-166,-128,76,0
500,-932,160,-174,-120,70,0
507,-919,141,-182,-115,62,0
504,-898,125,-189,-112,52,0
495,-877,116,-185,-111,35,0
475,-845,114,-168,-110,11,0
447,-834,112,-151,-111,-14,0
429,-827,108,-144,-113,-34,0
418,-833,101,-152,-114,-47,0
416,-855,92,-168,-118,-49,0
416,-869,81,-182,-123,-45,0
411,-887,66,-196,-128,-35,0
411,-887,66,-208,-124,-19,0
409,-902,58,-208,-124,-19,0
416,-909,58,-214,-112,0,0
426,-918,56,-215,-103,17,0
434,-916,57,-215,-98,30,0
435,-907,56,-214,-101,40,0
435,-901,48,-213,-107,42,0
430,-893,37,-213,-114,38,0
428,-893,25,-212,-122,31,0
425,-892,14,-209,-129,20,0
427,-892,2,-207,-133,10,0
430,-894,-4,-207,-131,2,0
435,-896,-9,-212,-125,0,0
433,-894,-7,-218,-115,-1,0
434,-897,-8,-221,-105,0,0
428,-900,-6,-219,-95,2,0
426,-906,-6,-211,-86,1,0
428,-915,-3,-201,-78,1,0
428,-919,1,-191,-71,3,0
425,-920,8,-182,-66,6,0
425,-920,8,-172,-63,7,0
424,-924,12,-172,-63,7,0
424,-926,20,-159,-60,11,0
419,-928,29,-146,-62,17,0
419,-927,37,-131,-63,22,0
419,-926,43,-115,-63,24,0
417,-925,46,-102,-62,25,0
415,-921,49,-90,-62,23,0
411,-917,48,-80,-63,19,0
407,-914,43,-71,-63,15,0
404,-912,45,-63,-63,11,0
402,-913,39,-59,-68,9,0
402,-911,32,-58,-73,9,0
402,-912,30,-61,-81,12,0
401,-911,22,-66,-91,17,0
402,-910,15,-69,-100,22,0
406,-911,8,-71,-111,29,0
408,-909,4,-74,-123,37,0
411,-910,-3,-78,-132,43,0
417,-906,-10,-81,-140,50,0
417,-906,-10,-85,-145,55,0
418,-903,-16,-85,-145,55,0
418,-894,-20,-91,-149,55,0
415,-887,-35,-85,-165,49,0
421,-881,-41,-77,-183,38,0
427,-883,-39,-79,-194,28,0
427,-889,-39,-86,-198,20,0
424,-898,-53,-93,-199,12,0
423,-906,-64,-94,-202,4,0
426,-917,-64,-93,-207,0,0
440,-926,-58,-93,-208,-3,0
448,-925,-49,-103,-194,1,0
433,-922,-73,-96,-193,4,0
443,-928,-57,-68,-193,-2,0
452,-931,-56,-78,-156,3,0
452,-937,-56,-92,-103,8,0
450,-937,-62,-97,-50,8,0
449,-940,-62,-93,-8,4,0
447,-942,-58,-87,27,0,0
438,-941,-55,-86,62,0,0
438,-941,-55,-88,97,3,0
426,-939,-55,-88,97,3,0
414,-937,-61,-92,128,7,0
405,-938,-74,-95,149,11,0
391,-939,-81,-100,165,16,0
378,-938,-81,-103,179,19,0
372,-942,-87,-102,186,24,0
368,-939,-95,-98,191,26,0
356,-932,-112,-87,183,27,0
369,-925,-114,-76,173,26,0
379,-916,-110,-76,171,27,0
389,-905,-114,-80,170,25,0
399,-893,-118,-81,164,19,0
406,-887,-120,-81,156,12,0
411,-884,-118,-85,149,6,0
409,-883,-115,-92,146,0,0
407,-885,-113,-101,146,-5,0
411,-888,-109,-109,149,-10,0
415,-894,-108,-118,154,-13,0
416,-904,-108,-126,160,-16,0
416,-904,-108,-129,166,-20,0
420,-910,-104,-129,166,-20,0
425,-919,-100,-133,174,-24,0
428,-922,-93,-138,182,-26,0
324,-951,-25,-195,333,-72,0
315,-958,-32,-188,319,-81,0
316,-961,-36,-180,305,-90,0
314,-965,-44,-169,294,-92,0
314,-968,-43,-165,288,-92,0
319,-967,-46,-154,277,-89,0
319,-967,-46,-141,265,-85,0
326,-975,-58,-141,265,-85,0
340,-971,-63,-130,255,-80,0
353,-966,-67,-111,242,-77,0
362,-953,-75,-90,229,-77,0
374,-938,-78,-71,221,-80,0
387,-928,-78,-57,218,-83,0
399,-922,-78,-50,221,-86,0
401,-924,-82,-49,230,-90,0
394,-932,-89,-46,242,-96,0
378,-940,-93,-42,249,-102,0
358,-950,-92,-31,249,-106,0
337,-960,-87,-13,239,-108,0
325,-962,-88,11,219,-109,0
321,-959,-91,33,199,-103,0
328,-955,-87,52,177,-98,0
343,-948,-87,74,154,-94,0
365,-932,-89,100,138,-94,0
388,-918,-88,119,136,-95,0
416,-909,-89,127,135,-103,0
416,-909,-89,139,156,-110,0
437,-901,-99,139,156,-110,0
459,-889,-95,148,184,-115,0
469,-878,-104,143,211,-118,0
477,-861,-90,129,246,-113,0
470,-861,-80,129,258,-118,0
467,-853,-82,146,253,-131,0
475,-853,-83,164,252,-133,0
486,-856,-65,168,250,-129,0
490,-858,-75,160,243,-126,0
497,-855,-61,163,255,-118,0
499,-858,-56,151,259,-116,0
505,-859,-51,138,264,-120,0
511,-863,-49,127,265,-127,0
520,-864,-40,114,269,-132,0
524,-868,-37,103,268,-140,0
531,-867,-30,95,266,-146,0
536,-865,-25,89,260,-153,0
541,-866,-23,88,249,-164,0
538,-863,-26,90,241,-172,0
538,-863,-26,82,245,-170,0
541,-864,-25,82,245,-170,0
548,-861,-23,69,256,-162,0
556,-860,-19,58,265,-153,0
565,-854,-13,49,273,-147,0
575,-844,-9,46,277,-147,0
580,-840,-2,45,280,-155,0
580,-844,2,45,280,-164,0
582,-845,5,49,280,-167,0
583,-843,8,55,280,-172,0
586,-840,14,58,284,-175,0
586,-835,21,59,291,-178,0
593,-826,28,57,300,-180,0
590,-828,30,54,312,-184,0
578,-821,32,53,322,-191,0
573,-828,31,54,332,-195,0
578,-826,33,56,347,-198,0
568,-822,33,61,360,-202,0
557,-821,41,66,359,-199,0
571,-828,43,59,358,-196,0
571,-828,43,58,357,-201,0
586,-828,52,58,357,-201,0
572,-825,61,64,357,-210,0
548,-819,73,71,350,-216,0
546,-818,67,75,326,-222,0
541,-817,89,69,327,-231,0
513,-820,94,60,337,-231,0
500,-811,92,49,328,-221,0
494,-815,87,34,309,-203,0
514,-810,91,14,285,-186,0
526,-817,96,7,253,-174,0
536,-818,99,-2,224,-163,0
543,-818,104,-11,206,-151,0
549,-820,114,-25,202,-135,0
556,-827,117,-42,201,-121,0
571,-827,123,-55,207,-106,0
580,-829,125,-69,219,-95,0
579,-830,124,-80,226,-87,0
576,-831,123,-87,232,-82,0
573,-829,123,-91,237,-78,0
573,-829,123,-94,243,-74,0
567,-826,123,-94,243,-74,0
564,-822,122,-97,240,-70,0
565,-822,127,-100,235,-64,0
565,-820,122,-106,227,-56,0
568,-819,116,-111,212,-50,0
570,-819,114,-116,196,-48,0
576,-822,113,-121,183,-46,0
582,-823,111,-126,177,-46,0
587,-822,111,-127,174,-48,0
591,-820,117,-129,171,-50,0
590,-817,120,-133,165,-52,0
583,-819,120,-137,159,-55,0
576,-820,117,-139,154,-61,0
571,-820,114,-138,152,-66,0
566,-821,111,-135,150,-68,0
562,-821,113,-125,145,-73,0
559,-821,116,-113,134,-78,0
564,-823,123,-105,121,-82,0
570,-828,130,-100,107,-82,0
570,-828,130,-98,93,-82,0
574,-834,134,-98,93,-82,0
568,-838,138,-99,80,-81,0
560,-840,140,-102,71,-77,0
559,-837,144,-107,66,-73,0
560,-834,146,-110,67,-65,0
560,-828,150,-104,66,-58,0
553,-823,157,-93,59,-53,0
544,-819,165,-82,46,-46,0
533,-818,172,-74,29,-40,0
521,-821,170,-69,14,-34,0
514,-823,170,-60,4,-29,0
514,-827,165,-45,-9,-24,0
526,-832,161,-26,-27,-19,0
545,-837,165,-10,-46,-11,0
574,-845,175,0,-69,-7,0
598,-849,177,8,-103,-4,0
600,-848,167,36,-141,-9,0
594,-846,160,91,-179,-28,0
585,-843,169,149,-198,-56,0
585,-843,169,184,-189,-76,0
570,-851,174,184,-189,-76,0
640,-779,134,28,-117,49,0
640,-785,139,36,-110,54,0
640,-787,145,48,-101,59,0
641,-786,150,58,-95,64,0
637,-788,147,65,-89,69,0
623,-787,135,67,-82,74,0
610,-787,124,66,-77,76,0
601,-791,117,67,-77,74,0
588,-790,108,67,-76,70,0
580,-786,102,59,-67,68,0
582,-783,98,40,-57,70,0
591,-783,102,20,-61,67,0
604,-795,97,8,-73,60,0
619,-808,97,2,-91,48,0
627,-815,92,-6,-106,36,0
638,-816,80,-19,-117,29,0
648,-806,81,-35,-114,27,0
648,-806,81,-35,-114,27,0
648,-794,82,-58,-102,31,0
640,-787,76,-86,-85,39,0
633,-784,67,-118,-66,48,0
632,-777,50,-144,-46,54,0
632,-781,41,-165,-27,58,0
631,-789,34,-179,-14,63,0
629,-802,35,-181,-9,68,0
622,-803,37,-174,-8,70,0
613,-806,39,-170,-5,74,0
597,-811,40,-166,0,81,0
588,-810,40,-159,4,89,0
579,-808,38,-151,9,97,0
569,-809,40,-142,10,102,0
560,-815,43,-128,7,104,0
551,-825,47,-113,2,105,0
544,-833,50,-102,-2,108,0
534,-843,55,-94,-6,113,0
525,-841,51,-87,-11,123,0
515,-854,44,-82,-9,136,0
515,-854,44,-82,-9,136,0
504,-852,38,-85,-7,141,0
499,-852,26,-92,-7,145,0
505,-855,15,-99,-12,149,0
515,-854,12,-106,-22,151,0
521,-858,13,-109,-37,148,0
523,-861,23,-105,-58,142,0
520,-863,31,-93,-75,133,0
513,-858,33,-77,-82,123,0
502,-854,29,-64,-74,116,0
489,-855,15,-62,-52,115,0
481,-862,-2,-70,-26,124,0
478,-866,-17,-87,-5,136,0
476,-872,-28,-101,1,151,0
470,-877,-34,-118,1,166,0
470,-879,-32,-135,-3,178,0
468,-883,-29,-144,-13,184,0
465,-881,-31,-141,-30,183,0
464,-882,-36,-131,-48,178,0
464,-882,-41,-120,-68,168,0
456,-877,-41,-120,-68,168,0
454,-886,-54,-111,-90,158,0
453,-885,-61,-103,-115,146,0
455,-897,-60,-102,-141,139,0
460,-921,-54,-107,-164,136,0
476,-948,-41,-116,-175,137,0
482,-959,-34,-127,-180,138,0
481,-949,-35,-128,-185,132,0
478,-934,-37,-116,-191,120,0
469,-917,-42,-96,-198,104,0
457,-905,-45,-73,-202,88,0
441,-896,-45,-55,-200,74,0
425,-889,-48,-43,-195,66,0
409,-888,-57,-38,-188,64,0
407,-892,-68,-34,-187,67,0
409,-896,-70,-30,-195,75,0
416,-901,-62,-22,-214,87,0
421,-901,-53,-7,-237,94,0
423,-901,-43,11,-254,97,0
423,-901,-40,33,-266,96,0
420,-903,-40,33,-266,96,0
409,-906,-46,51,-270,91,0
397,-906,-60,66,-268,80,0
381,-906,-74,79,-270,67,0
372,-909,-77,89,-281,56,0
364,-913,-74,101,-305,49,0
363,-926,-70,104,-334,48,0
368,-931,-63,101,-359,49,0
372,-932,-62,93,-378,54,0
373,-926,-65,86,-395,58,0
372,-919,-70,84,-411,58,0
366,-915,-79,84,-427,52,0
365,-917,-86,83,-442,45,0
374,-917,-88,78,-457,40,0
382,-919,-88,68,-468,39,0
386,-917,-80,59,-471,40,0
390,-917,-78,51,-464,42,0
390,-919,-89,47,-454,42,0
391,-923,-91,48,-439,37,0
391,-923,-92,53,-423,32,0
398,-925,-92,53,-423,32,0
399,-926,-91,57,-411,28,0
401,-929,-87,66,-399,21,0
406,-936,-77,79,-385,14,0
413,-943,-66,94,-369,7,0
417,-953,-53,108,-350,0,0
419,-958,-42,125,-329,-5,0
415,-955,-33,141,-301,-8,0
408,-951,-25,151,-270,-8,0
403,-954,-20,156,-243,-6,0
395,-957,-20,156,-222,-2,0
391,-958,-23,152,-203,2,0
392,-953,-27,149,-190,6,0
401,-942,-27,155,-185,8,0
406,-932,-23,164,-186,7,0
403,-924,-30,165,-183,5,0
400,-916,-38,160,-174,3,0
398,-912,-36,156,-164,2,0
388,-910,-39,148,-152,2,0
388,-910,-37,138,-140,0,0
382,-914,-37,138,-140,0,0
379,-918,-35,132,-133,0,0
373,-919,-34,126,-136,1,0
369,-917,-35,122,-144,0,0
368,-920,-39,122,-154,-3,0
369,-923,-42,121,-161,-7,0
364,-923,-44,113,-166,-10,0
360,-922,-45,106,-172,-12,0
361,-925,-40,102,-176,-14,0
361,-932,-45,99,-178,-15,0
366,-935,-53,96,-177,-15,0
372,-929,-32,62,33,-110,0
371,-934,-35,52,40,-112,0
374,-936,-31,41,42,-110,0
371,-939,-35,33,40,-108,0
362,-937,-40,28,42,-109,0
359,-935,-38,27,44,-115,0
358,-934,-38,25,43,-120,0
361,-933,-34,23,40,-124,0
361,-933,-34,16,37,-127,0
368,-932,-30,16,37,-127,0
370,-936,-32,6,34,-127,0
363,-940,-37,0,31,-129,0
359,-945,-44,-4,29,-130,0
357,-949,-49,-7,28,-128,0
357,-951,-52,-8,23,-125,0
358,-950,-57,-10,16,-122,0
365,-949,-61,-13,14,-117,0
379,-946,-58,-15,16,-110,0
394,-938,-56,-18,18,-102,0
401,-928,-57,-22,24,-94,0
408,-919,-58,-27,40,-92,0
413,-909,-50,-29,58,-90,0
424,-907,-53,-33,81,-89,0
434,-903,-51,-40,106,-90,0
434,-897,-51,-41,126,-92,0
432,-892,-52,-37,137,-98,0
429,-886,-44,-31,141,-106,0
423,-888,-40,-27,138,-112,0
423,-888,-40,-26,134,-116,0
416,-892,-34,-26,134,-116,0
409,-897,-26,-23,128,-119,0
405,-903,-17,-19,121,-122,0
401,-911,-16,-16,112,-123,0
403,-921,-17,-11,101,-122,0
405,-925,-18,0,88,-123,0
406,-926,-18,11,75,-124,0
409,-922,-18,21,63,-123,0
416,-916,-19,24,54,-119,0
425,-905,-20,26,45,-114,0
432,-897,-23,27,33,-112,0
440,-892,-21,32,22,-112,0
447,-892,-21,40,10,-116,0
449,-890,-26,46,0,-119,0
449,-889,-36,49,-1,-119,0
453,-889,-45,49,2,-118,0
461,-877,-43,49,6,-116,0
465,-874,-49,50,5,-115,0
469,-871,-49,46,6,-114,0
469,-871,-49,41,7,-114,0
472,-869,-45,41,7,-114,0
476,-869,-42,39,7,-117,0
476,-868,-38,37,8,-119,0
475,-871,-38,39,11,-120,0
479,-876,-37,45,14,-118,0
482,-875,-33,47,21,-115,0
483,-870,-32,46,23,-114,0
482,-869,-34,44,25,-115,0
478,-872,-40,43,23,-119,0
480,-868,-39,43,20,-123,0
483,-868,-38,42,13,-124,0
485,-866,-38,40,6,-127,0
487,-867,-36,37,1,-130,0
488,-869,-35,37,-3,-133,0
489,-871,-31,39,-7,-135,0
493,-872,-28,41,-9,-135,0
499,-870,-24,40,-8,-130,0
512,-866,-18,37,-5,-124,0
523,-861,-17,32,-4,-117,0
523,-861,-17,25,-5,-113,0
531,-856,-17,25,-5,-113,0
534,-852,-15,26,-10,-113,0
538,-853,-12,26,-17,-114,0
542,-849,-8,24,-19,-116,0
545,-846,-13,21,-14,-117,0
546,-847,-12,22,-6,-122,0
547,-847,-12,25,1,-128,0
546,-846,-13,27,11,-132,0
546,-844,-14,26,22,-131,0
548,-845,-18,23,30,-127,0
552,-840,-17,20,38,-121,0
557,-845,-17,16,41,-115,0
561,-841,-15,10,42,-111,0
559,-835,-12,12,40,-109,0
557,-838,-14,18,37,-110,0
559,-839,-15,20,36,-112,0
559,-839,-14,22,33,-115,0
559,-844,-13,27,27,-119,0
560,-845,-7,28,21,-121,0
560,-845,-7,26,17,-119,0
560,-845,-6,26,17,-119,0
564,-845,-8,26,15,-116,0
570,-841,-5,25,17,-111,0
572,-837,0,24,14,-108,0
571,-833,2,23,8,-105,0
567,-831,0,14,5,-99,0
560,-826,-4,3,3,-93,0
559,-823,-10,-4,3,-87,0
559,-818,-12,-8,2,-84,0
562,-816,-14,-15,0,-81,0
566,-817,-13,-21,-2,-79,0
572,-818,-10,-25,-8,-78,0
575,-823,-10,-26,-15,-78,0
580,-826,-6,-21,-22,-80,0
583,-830,0,-13,-30,-82,0
584,-833,0,-8,-28,-82,0
582,-827,5,-6,-21,-80,0
586,-832,3,-4,-12,-75,0
583,-835,0,-2,-3,-71,0
583,-835,0,0,2,-67,0
579,-835,0,0,2,-67,0
576,-832,0,3,6,-62,0
579,-827,-2,4,9,-58,0
578,-823,-4,6,11,-54,0
575,-825,-12,7,13,-52,0
574,-828,-16,7,16,-49,0
576,-830,-19,6,15,-47,0
575,-831,-21,5,10,-45,0
583,-826,-17,10,2,-44,0
593,-823,-12,17,-5,-45,0
587,-821,-5,22,-13,-46,0
574,-823,-3,27,-17,-47,0
565,-822,-8,25,-13,-45,0
563,-821,-13,16,-7,-40,0
562,-820,-23,7,-4,-36,0
564,-818,-30,2,-7,-35,0
567,-817,-33,0,-15,-35,0
570,-816,-30,0,-28,-36,0
575,-818,-26,1,-38,-37,0
559,-840,-27,7,-18,-4,0
559,-840,-27,7,-18,-4,0
556,-841,-30,10,-16,-4,0
552,-841,-31,13,-18,-4,0
554,-837,-32,15,-21,-4,0
555,-834,-33,14,-24,-3,0
559,-833,-38,12,-25,0,0
565,-832,-40,11,-23,2,0
569,-833,-43,8,-20,5,0
572,-835,-44,7,-18,5,0
571,-836,-45,8,-18,4,0
570,-833,-44,10,-17,3,0
571,-834,-45,10,-10,2,0
570,-835,-42,9,-2,2,0
571,-834,-37,12,2,3,0
570,-834,-33,13,6,2,0
568,-834,-29,14,7,2,0
560,-836,-27,14,10,1,0
552,-838,-29,14,13,1,0
548,-838,-29,16,13,2,0
545,-841,-32,19,12,3,0
545,-841,-32,19,12,3,0
543,-840,-32,21,9,4,0
539,-840,-34,21,7,7,0
540,-842,-37,19,8,12,0
544,-844,-35,17,10,15,0
547,-844,-32,15,10,18,0
546,-841,-29,12,6,19,0
540,-840,-33,11,2,19,0
533,-841,-39,12,0,18,0
531,-843,-41,16,0,17,0
532,-843,-41,23,-4,15,0
534,-844,-41,27,-8,14,0
537,-844,-41,29,-10,15,0
540,-845,-38,30,-10,16,0
545,-846,-37,31,-11,18,0
545,-848,-35,29,-12,20,0
547,-850,-37,23,-8,23,0
547,-850,-40,17,-4,25,0
541,-848,-42,17,-4,24,0
541,-848,-41,23,-7,20,0
537,-848,-41,23,-7,20,0
535,-848,-38,28,-10,17,0
530,-847,-37,32,-12,15,0
530,-847,-35,32,-14,15,0
525,-848,-36,32,-13,17,0
522,-847,-36,37,-14,17,0
523,-846,-34,44,-14,17,0
523,-848,-37,50,-16,17,0
524,-849,-35,54,-15,17,0
528,-851,-33,54,-16,18,0
528,-849,-31,53,-20,21,0
527,-849,-30,49,-26,24,0
522,-847,-30,44,-28,27,0
518,-848,-32,41,-28,28,0
516,-848,-30,39,-26,29,0
514,-850,-28,37,-27,29,0
513,-853,-25,33,-32,30,0
511,-856,-24,28,-40,31,0
509,-860,-24,24,-49,33,0
509,-860,-24,20,-58,35,0
506,-862,-24,20,-58,35,0
504,-862,-23,18,-62,38,0
504,-861,-21,14,-61,41,0
506,-861,-20,9,-56,45,0
509,-862,-20,1,-49,49,0
510,-863,-23,-7,-43,52,0
509,-863,-28,-12,-38,54,0
508,-864,-32,-14,-37,54,0
508,-866,-34,-12,-39,52,0
507,-865,-37,-10,-46,50,0
507,-867,-36,-6,-53,48,0
505,-868,-37,-4,-59,46,0
503,-871,-37,-1,-61,45,0
501,-874,-37,2,-62,43,0
499,-874,-37,6,-59,41,0
497,-875,-39,10,-56,39,0
494,-874,-42,14,-52,37,0
492,-873,-44,18,-49,36,0
490,-872,-48,22,-46,34,0
490,-872,-51,26,-44,33,0
489,-873,-51,26,-44,33,0
489,-873,-53,29,-42,31,0
488,-875,-58,32,-40,30,0
487,-875,-58,35,-36,28,0
489,-874,-59,36,-34,28,0
485,-873,-63,35,-32,28,0
482,-871,-66,33,-31,27,0
480,-871,-65,30,-31,26,0
476,-874,-63,27,-36,23,0
475,-878,-60,27,-43,20,0
475,-879,-53,25,-51,19,0
474,-880,-44,18,-58,21,0
474,-880,-38,9,-62,24,0
475,-877,-30,0,-63,27,0
476,-877,-23,-6,-64,28,0
476,-880,-18,-11,-67,28,0
476,-881,-11,-15,-69,28,0
474,-884,-10,-16,-72,27,0
470,-889,-9,-16,-73,24,0
470,-889,-9,-15,-75,21,0
467,-892,-9,-15,-75,21,0
463,-895,-10,-11,-78,19,0
464,-898,-14,-9,-79,21,0
467,-900,-17,-4,-80,22,0
471,-899,-20,2,-81,23,0
476,-896,-24,8,-81,25,0
478,-897,-29,14,-80,25,0
477,-895,-32,19,-78,26,0
478,-892,-33,26,-75,27,0
479,-889,-34,32,-72,26,0
477,-887,-36,39,-69,25,0
474,-886,-38,44,-67,23,0
470,-885,-40,49,-64,21,0
471,-886,-42,54,-62,18,0
470,-885,-43,59,-63,17,0
471,-884,-44,64,-63,17,0
471,-882,-44,68,-62,16,0
473,-882,-42,71,-60,16,0
475,-884,-40,73,-59,17,0
475,-884,-40,74,-58,18,0
476,-888,-38,74,-58,18,0
476,-892,-36,73,-54,20,0
475,-891,-37,71,-47,21,0
472,-890,-38,68,-41,22,0
467,-886,-40,65,-35,23,0
464,-883,-44,62,-29,25,0
459,-879,-48,57,-23,27,0
412,-916,-45,-35,-55,49,0
415,-917,-51,-32,-54,48,0
419,-920,-55,-24,-54,49,0
424,-922,-58,-14,-55,50,0
426,-926,-57,-3,-52,52,0
419,-922,-51,1,-41,60,0
411,-916,-74,19,-49,57,0
415,-922,-71,40,-57,49,0
413,-925,-66,55,-53,42,0
411,-924,-62,60,-41,39,0
411,-922,-60,62,-29,38,0
409,-916,-62,62,-20,37,0
409,-916,-62,62,-20,37,0
403,-913,-64,62,-15,36,0
400,-912,-64,62,-17,33,0
398,-914,-62,60,-20,30,0
397,-918,-57,59,-23,28,0
392,-920,-55,57,-23,27,0
386,-920,-58,56,-20,27,0
382,-921,-60,55,-16,26,0
384,-921,-59,54,-15,26,0
386,-920,-52,49,-17,28,0
388,-923,-44,42,-24,30,0
392,-927,-35,38,-32,33,0
392,-934,-34,40,-38,33,0
388,-936,-46,48,-37,30,0
382,-933,-61,59,-30,25,0
376,-924,-66,66,-24,19,0
372,-919,-63,69,-23,15,0
376,-925,-58,72,-29,11,0
374,-933,-58,73,-34,9,0
370,-935,-54,77,-34,8,0
370,-935,-54,77,-34,8,0
368,-938,-52,80,-35,8,0
363,-937,-56,83,-39,10,0
354,-937,-61,85,-44,10,0
346,-932,-68,87,-49,9,0
346,-925,-66,88,-56,7,0
352,-922,-58,90,-67,4,0
361,-924,-48,90,-80,1,0
362,-927,-46,92,-91,-4,0
357,-927,-49,93,-97,-9,0
351,-927,-56,88,-100,-10,0
353,-927,-62,78,-101,-6,0
364,-926,-57,66,-102,0,0
372,-927,-52,58,-105,3,0
377,-928,-49,55,-108,3,0
379,-928,-57,54,-109,-1,0
383,-927,-55,55,-109,-4,0
382,-926,-57,53,-112,-7,0
382,-924,-61,50,-113,-9,0
382,-926,-53,50,-112,-12,0
382,-926,-53,50,-112,-12,0
380,-931,-49,51,-112,-14,0
378,-931,-50,51,-110,-14,0
380,-929,-52,53,-107,-15,0
379,-930,-52,55,-103,-16,0
381,-930,-50,55,-102,-17,0
384,-930,-47,55,-103,-16,0
385,-932,-47,57,-103,-17,0
383,-936,-41,60,-102,-19,0
378,-934,-38,63,-100,-22,0
371,-932,-38,65,-98,-24,0
366,-931,-43,68,-96,-26,0
366,-930,-45,67,-95,-27,0
367,-933,-40,65,-97,-26,0
367,-932,-44,62,-99,-24,0
371,-930,-41,62,-102,-24,0
372,-928,-45,60,-105,-24,0
372,-931,-46,62,-104,-25,0
373,-931,-53,63,-103,-25,0
375,-931,-55,61,-103,-24,0
375,-931,-55,61,-103,-24,0
377,-930,-53,60,-103,-23,0
377,-926,-54,59,-102,-25,0
378,-926,-50,61,-102,-28,0
378,-928,-50,61,-99,-30,0
378,-929,-48,60,-96,-30,0
374,-926,-47,59,-94,-29,0
369,-922,-50,56,-92,-29,0
366,-922,-47,56,-90,-29,0
365,-925,-47,57,-90,-31,0
361,-929,-47,55,-91,-31,0
358,-931,-45,55,-93,-30,0
360,-936,-41,56,-99,-29,0
362,-943,-39,58,-105,-30,0
359,-947,-37,61,-112,-32,0
354,-947,-39,62,-115,-32,0
356,-942,-38,59,-117,-30,0
360,-936,-36,56,-119,-26,0
369,-932,-38,57,-124,-25,0
375,-929,-37,63,-130,-28,0
375,-929,-37,63,-130,-28,0
377,-929,-34,72,-136,-34,0
376,-932,-31,79,-135,-41,0
375,-935,-34,81,-129,-45,0
373,-934,-34,80,-123,-45,0
373,-931,-30,77,-120,-45,0
370,-927,-26,76,-117,-45,0
364,-928,-28,78,-113,-46,0
363,-928,-28,80,-112,-48,0
363,-931,-25,83,-115,-51,0
357,-935,-29,88,-120,-55,0
351,-940,-38,89,-121,-58,0
349,-946,-44,86,-122,-57,0
351,-948,-47,79,-127,-51,0
358,-945,-43,71,-135,-46,0
363,-937,-37,70,-145,-44,0
367,-929,-35,74,-155,-46,0
368,-925,-36,79,-161,-50,0
372,-926,-38,83,-164,-56,0
373,-928,-39,85,-166,-61,0
373,-928,-39,85,-166,-61,0
372,-931,-39,86,-166,-65,0
